AX,AY,AZ,CO2,Temp,Hum,Tim,File
0.027,-0.189,0.949,,,,,
0.01,-0.195,0.957,,,,,
0.02,-0.201,0.986,,,,,
0.031,-0.199,0.967,,,,,
0.035,-0.186,0.965,,,,,
0.014,-0.195,0.951,,,,,
0.016,-0.195,0.98,,,,,
0.025,-0.207,0.971,,,,,
0.037,-0.188,0.975,,,,,
0.031,-0.193,0.959,,,,,
0.014,-0.191,0.967,,,,,
0.023,-0.203,0.982,,,,,
0.035,-0.199,0.973,,,,,
0.035,-0.186,0.959,,,,,
0.01,-0.195,0.943,,,,,
0.016,-0.197,0.984,,,,,
0.025,-0.211,0.971,,,,,
0.035,-0.195,0.973,99999,99.9,100,177,2
0.023,-0.191,0.947,,,,,
0.01,-0.193,0.965,,,,,
0.025,-0.209,0.982,,,,,
0.031,-0.197,0.973,,,,,
0.031,-0.189,0.963,,,,,
0.014,-0.191,0.941,,,,,
0.018,-0.195,0.994,,,,,
0.033,-0.205,0.975,,,,,
0.035,-0.189,0.965,,,,,
0.018,-0.191,0.953,,,,,
0.012,-0.197,0.965,,,,,
0.021,-0.215,0.986,,,,,
0.033,-0.191,0.965,,,,,
0.033,-0.178,0.953,,,,,
0.01,-0.195,0.959,,,,,
0.018,-0.205,0.99,,,,,
0.029,-0.207,0.969,,,,,
0.035,-0.191,0.975,99999,99.9,100,353,2
0.025,-0.189,0.945,,,,,
0.014,-0.191,0.98,,,,,
0.027,-0.203,0.98,,,,,
0.033,-0.195,0.969,,,,,
0.027,-0.193,0.957,,,,,
0.01,-0.195,0.955,,,,,
0.02,-0.201,0.984,,,,,
0.029,-0.203,0.963,,,,,
0.037,-0.186,0.971,,,,,
0.016,-0.195,0.961,,,,,
0.012,-0.193,0.973,,,,,
0.023,-0.209,0.969,,,,,
0.037,-0.189,0.963,,,,,
0.031,-0.188,0.959,,,,,
0.012,-0.193,0.957,,,,,
0.021,-0.199,0.986,,,,,
0.029,-0.203,0.969,,,,,
0.031,-0.191,0.965,99999,99.9,100,529,2
0.016,-0.193,0.945,,,,,
0.014,-0.195,0.977,,,,,
0.025,-0.209,0.975,,,,,
0.035,-0.191,0.971,,,,,
0.027,-0.193,0.945,,,,,
0.01,-0.191,0.965,,,,,
0.02,-0.209,0.984,,,,,
0.033,-0.201,0.963,,,,,
0.029,-0.188,0.959,,,,,
0.014,-0.189,0.947,,,,,
0.021,-0.201,0.986,,,,,
0.027,-0.209,0.98,,,,,
0.039,-0.189,0.965,,,,,
0.025,-0.186,0.951,,,,,
0.01,-0.195,0.967,,,,,
0.023,-0.213,0.984,,,,,
0.031,-0.199,0.965,,,,,
0.031,-0.189,0.957,99999,99.9,100,705,2
0.01,-0.191,0.947,,,,,
0.016,-0.199,0.986,,,,,
0.031,-0.207,0.965,,,,,
0.033,-0.189,0.967,,,,,
0.021,-0.199,0.951,,,,,
0.012,-0.191,0.967,,,,,
0.023,-0.203,0.98,,,,,
0.035,-0.191,0.957,,,,,
0.029,-0.186,0.961,,,,,
0.014,-0.197,0.963,,,,,
0.021,-0.201,0.982,,,,,
0.027,-0.207,0.969,,,,,
0.037,-0.184,0.969,,,,,
0.02,-0.191,0.951,,,,,
0.016,-0.193,0.98,,,,,
0.021,-0.209,0.973,,,,,
0.031,-0.195,0.967,,,,,
0.029,-0.195,0.957,99999,99.9,100,880,2
0.014,-0.191,0.947,,,,,
0.02,-0.203,0.984,,,,,
0.031,-0.199,0.969,,,,,
0.035,-0.189,0.971,,,,,
0.018,-0.191,0.949,,,,,
0.018,-0.189,0.98,,,,,
0.025,-0.205,0.979,,,,,
0.035,-0.193,0.971,,,,,
0.029,-0.189,0.957,,,,,
0.01,-0.191,0.959,,,,,
0.023,-0.207,0.982,,,,,
0.029,-0.203,0.965,,,,,
0.031,-0.186,0.951,,,,,
0.012,-0.197,0.941,,,,,
0.016,-0.201,0.977,,,,,
0.029,-0.217,0.973,,,,,
0.033,-0.191,0.969,,,,,
0.033,-0.189,0.951,99999,99.9,100,1056,2
0.012,-0.193,0.979,,,,,
0.027,-0.197,0.988,,,,,
0.031,-0.199,0.969,,,,,
0.027,-0.188,0.963,,,,,
0.016,-0.195,0.945,,,,,
0.016,-0.197,0.988,,,,,
0.031,-0.205,0.971,,,,,
0.039,-0.182,0.961,,,,,
0.018,-0.197,0.963,,,,,
0.016,-0.203,0.963,,,,,
0.027,-0.209,0.979,,,,,
0.029,-0.197,0.967,,,,,
0.031,-0.176,0.947,,,,,
0.012,-0.197,0.959,,,,,
0.023,-0.203,0.979,,,,,
0.027,-0.205,0.963,,,,,
0.031,-0.189,0.971,,,,,
0.023,-0.191,0.949,99999,99.9,100,1232,2
0.014,-0.189,0.982,,,,,
0.027,-0.201,0.969,,,,,
0.033,-0.199,0.98,,,,,
0.027,-0.201,0.959,,,,,
0.014,-0.195,0.945,,,,,
0.018,-0.205,0.986,,,,,
0.035,-0.201,0.963,,,,,
0.037,-0.188,0.969,,,,,
0.016,-0.195,0.957,,,,,
0.01,-0.195,0.973,,,,,
0.021,-0.209,0.98,,,,,
0.035,-0.191,0.967,,,,,
0.031,-0.184,0.955,,,,,
0.006,-0.188,0.953,,,,,
0.023,-0.203,0.986,,,,,
0.029,-0.203,0.971,,,,,
0.033,-0.189,0.971,,,,,
0.021,-0.191,0.945,99999,99.9,100,1408,2
0.012,-0.193,0.971,,,,,
0.029,-0.209,0.971,,,,,
0.035,-0.193,0.973,,,,,
0.029,-0.188,0.951,,,,,
0.014,-0.193,0.953,,,,,
0.02,-0.203,0.99,,,,,
0.033,-0.199,0.959,,,,,
0.035,-0.189,0.971,,,,,
0.018,-0.191,0.945,,,,,
0.014,-0.197,0.979,,,,,
0.029,-0.209,0.988,,,,,
0.039,-0.188,0.963,,,,,
0.029,-0.189,0.955,,,,,
0.01,-0.197,0.963,,,,,
0.021,-0.207,0.982,,,,,
0.029,-0.203,0.969,,,,,
0.035,-0.189,0.959,,,,,
0.018,-0.195,0.949,99999,99.9,100,1584,2
0.016,-0.193,0.98,,,,,
0.025,-0.209,0.965,,,,,
0.031,-0.197,0.973,,,,,
0.029,-0.199,0.957,,,,,
0.014,-0.193,0.965,,,,,
0.02,-0.203,0.982,,,,,
0.037,-0.193,0.965,,,,,
0.031,-0.191,0.967,,,,,
0.014,-0.197,0.951,,,,,
0.014,-0.199,0.982,,,,,
0.027,-0.207,0.977,,,,,
0.039,-0.188,0.963,,,,,
0.025,-0.188,0.959,,,,,
0.014,-0.195,0.961,,,,,
0.02,-0.211,0.982,,,,,
0.031,-0.203,0.971,,,,,
0.029,-0.188,0.961,,,,,
0.012,-0.195,0.949,99999,99.9,100,1759,2
0.018,-0.197,0.982,,,,,
0.033,-0.209,0.977,,,,,
0.033,-0.186,0.967,,,,,
0.012,-0.199,0.959,,,,,
0.02,-0.197,0.986,,,,,
0.033,-0.203,0.971,,,,,
0.039,-0.186,0.963,,,,,
0.016,-0.191,0.951,,,,,
0.016,-0.201,0.969,,,,,
0.023,-0.209,0.98,,,,,
0.033,-0.189,0.957,,,,,
0.031,-0.182,0.959,,,,,
0.014,-0.195,0.969,,,,,
0.025,-0.201,0.982,,,,,
0.033,-0.205,0.969,,,,,
0.033,-0.186,0.965,,,,,
0.02,-0.193,0.947,,,,,
0.016,-0.199,0.975,99999,99.9,100,1935,2
0.025,-0.209,0.967,,,,,
0.031,-0.195,0.961,,,,,
0.025,-0.191,0.963,,,,,
0.014,-0.193,0.965,,,,,
0.021,-0.199,0.977,,,,,
0.035,-0.203,0.967,,,,,
0.029,-0.184,0.965,,,,,
0.016,-0.193,0.951,,,,,
0.014,-0.195,0.98,,,,,
0.025,-0.207,0.973,,,,,
0.039,-0.191,0.969,,,,,
0.025,-0.189,0.955,,,,,
0.008,-0.195,0.951,,,,,
0.023,-0.203,0.977,,,,,
0.031,-0.203,0.975,,,,,
0.037,-0.191,0.969,,,,,
0.01,-0.191,0.941,,,,,
0.021,-0.193,0.977,398,30.9,38.5,2111,2
0.027,-0.209,0.977,,,,,
0.035,-0.191,0.971,,,,,
0.025,-0.193,0.955,,,,,
0.01,-0.191,0.959,,,,,
0.023,-0.203,0.98,,,,,
0.035,-0.199,0.965,,,,,
0.035,-0.186,0.963,,,,,
0.014,-0.189,0.939,,,,,
0.014,-0.195,0.98,,,,,
0.027,-0.213,0.973,,,,,
0.035,-0.188,0.963,,,,,
0.025,-0.186,0.943,,,,,
0.014,-0.195,0.975,,,,,
0.021,-0.211,0.979,,,,,
0.033,-0.197,0.969,,,,,
0.037,-0.189,0.963,,,,,
0.012,-0.189,0.951,,,,,
0.016,-0.195,0.984,398,30.9,38.5,2287,2
0.029,-0.207,0.965,,,,,
0.037,-0.189,0.975,,,,,
0.021,-0.195,0.955,,,,,
0.012,-0.193,0.965,,,,,
0.021,-0.207,0.984,,,,,
0.031,-0.191,0.957,,,,,
0.035,-0.188,0.969,,,,,
0.01,-0.199,0.961,,,,,
0.02,-0.195,0.984,,,,,
0.023,-0.217,0.969,,,,,
0.039,-0.188,0.969,,,,,
0.023,-0.195,0.949,,,,,
0.01,-0.191,0.967,,,,,
0.021,-0.209,0.979,,,,,
0.033,-0.191,0.975,,,,,
0.033,-0.189,0.971,,,,,
0.014,-0.188,0.951,,,,,
0.018,-0.195,0.984,398,30.9,38.5,2462,2
0.035,-0.209,0.977,,,,,
0.035,-0.188,0.967,,,,,
0.02,-0.195,0.955,,,,,
0.01,-0.193,0.965,,,,,
0.02,-0.207,0.984,,,,,
0.033,-0.195,0.965,,,,,
0.035,-0.188,0.959,,,,,
0.01,-0.193,0.951,,,,,
0.021,-0.197,0.986,,,,,
0.027,-0.205,0.977,,,,,
0.037,-0.182,0.957,,,,,
0.021,-0.189,0.949,,,,,
0.012,-0.195,0.969,,,,,
0.021,-0.215,0.98,,,,,
0.035,-0.191,0.967,,,,,
0.031,-0.188,0.953,,,,,
0.012,-0.189,0.963,,,,,
0.021,-0.199,0.982,398,30.9,38.5,2638,2
0.033,-0.205,0.975,,,,,
0.031,-0.195,0.965,,,,,
0.02,-0.193,0.951,,,,,
0.012,-0.199,0.973,,,,,
0.027,-0.203,0.98,,,,,
0.035,-0.191,0.959,,,,,
0.027,-0.189,0.965,,,,,
0.01,-0.199,0.959,,,,,
0.02,-0.201,0.984,,,,,
0.029,-0.209,0.971,,,,,
0.039,-0.186,0.963,,,,,
0.02,-0.193,0.951,,,,,
0.018,-0.188,0.975,,,,,
0.021,-0.213,0.969,,,,,
0.031,-0.197,0.971,,,,,
0.035,-0.193,0.955,,,,,
0.004,-0.189,0.955,,,,,
0.023,-0.197,0.982,398,30.9,38.5,2814,2
0.031,-0.203,0.973,,,,,
0.033,-0.189,0.971,,,,,
0.016,-0.197,0.943,,,,,
0.014,-0.197,0.975,,,,,
0.027,-0.207,0.98,,,,,
0.035,-0.195,0.969,,,,,
0.031,-0.182,0.953,,,,,
0.01,-0.189,0.957,,,,,
0.023,-0.199,0.982,,,,,
0.031,-0.209,0.979,,,,,
0.035,-0.189,0.959,,,,,
0.012,-0.195,0.943,,,,,
0.014,-0.195,0.98,,,,,
0.021,-0.215,0.98,,,,,
0.033,-0.186,0.965,,,,,
0.031,-0.188,0.951,,,,,
0.014,-0.193,0.967,,,,,
0.02,-0.211,0.982,398,30.9,38.5,2990,2
0.029,-0.207,0.965,,,,,
0.035,-0.186,0.967,,,,,
0.021,-0.191,0.949,,,,,
0.016,-0.193,0.98,,,,,
0.027,-0.207,0.975,,,,,
0.035,-0.191,0.963,,,,,
0.025,-0.195,0.957,,,,,
0.008,-0.201,0.953,,,,,
0.021,-0.207,0.988,,,,,
0.027,-0.199,0.959,,,,,
0.039,-0.188,0.969,,,,,
0.012,-0.197,0.957,,,,,
0.014,-0.195,0.979,,,,,
0.025,-0.211,0.971,,,,,
0.037,-0.191,0.975,,,,,
0.029,-0.193,0.957,,,,,
0.006,-0.189,0.959,,,,,
0.021,-0.201,0.986,398,30.9,38.5,3166,2
0.035,-0.197,0.969,,,,,
0.031,-0.193,0.965,,,,,
0.016,-0.193,0.945,,,,,
0.016,-0.197,0.975,,,,,
0.025,-0.209,0.979,,,,,
0.035,-0.189,0.975,,,,,
0.031,-0.188,0.955,,,,,
0.01,-0.191,0.957,,,,,
0.018,-0.211,0.982,,,,,
0.031,-0.205,0.975,,,,,
0.035,-0.186,0.965,,,,,
0.012,-0.191,0.947,,,,,
0.014,-0.191,0.982,,,,,
0.025,-0.209,0.986,,,,,
0.035,-0.193,0.975,,,,,
0.029,-0.191,0.947,,,,,
0.01,-0.189,0.969,,,,,
0.027,-0.211,0.986,398,30.9,38.5,3341,2
0.029,-0.197,0.963,,,,,
0.031,-0.188,0.959,,,,,
0.014,-0.193,0.945,,,,,
0.016,-0.201,0.98,,,,,
0.029,-0.209,0.973,,,,,
0.035,-0.189,0.967,,,,,
0.027,-0.195,0.957,,,,,
0.012,-0.193,0.963,,,,,
0.021,-0.209,0.986,,,,,
0.033,-0.195,0.965,,,,,
0.035,-0.191,0.963,,,,,
0.014,-0.195,0.957,,,,,
0.016,-0.195,0.98,,,,,
0.025,-0.211,0.977,,,,,
0.035,-0.193,0.975,,,,,
0.031,-0.193,0.955,,,,,
0.01,-0.195,0.967,,,,,
0.021,-0.209,0.977,398,30.9,38.5,3517,2
0.029,-0.201,0.965,,,,,
0.031,-0.191,0.969,,,,,
0.014,-0.191,0.945,,,,,
0.018,-0.197,0.977,,,,,
0.027,-0.211,0.975,,,,,
0.035,-0.191,0.977,,,,,
0.025,-0.191,0.951,,,,,
0.014,-0.195,0.963,,,,,
0.023,-0.211,0.982,,,,,
0.033,-0.195,0.969,,,,,
0.035,-0.186,0.967,,,,,
0.01,-0.195,0.947,,,,,
0.016,-0.199,0.98,,,,,
0.025,-0.215,0.979,,,,,
0.031,-0.189,0.971,,,,,
0.025,-0.191,0.945,,,,,
0.01,-0.191,0.969,,,,,
0.025,-0.209,0.982,398,30.9,38.5,3693,2
0.031,-0.197,0.971,,,,,
0.033,-0.188,0.963,,,,,
0.014,-0.195,0.955,,,,,
0.018,-0.199,0.986,,,,,
0.031,-0.209,0.973,,,,,
0.037,-0.186,0.969,,,,,
0.023,-0.191,0.953,,,,,
0.012,-0.199,0.969,,,,,
0.025,-0.207,0.98,,,,,
0.033,-0.193,0.961,,,,,
0.033,-0.186,0.957,,,,,
0.014,-0.195,0.955,,,,,
0.02,-0.197,0.979,,,,,
0.029,-0.209,0.971,,,,,
0.035,-0.189,0.975,,,,,
0.02,-0.195,0.953,,,,,
0.014,-0.189,0.977,,,,,
0.027,-0.209,0.977,398,30.9,38.5,3869,2
0.035,-0.188,0.971,,,,,
0.031,-0.191,0.961,,,,,
0.016,-0.193,0.953,,,,,
0.018,-0.195,0.977,,,,,
0.027,-0.207,0.969,,,,,
0.031,-0.188,0.967,,,,,
0.02,-0.199,0.945,,,,,
0.018,-0.197,0.971,,,,,
0.023,-0.211,0.971,,,,,
0.037,-0.193,0.975,,,,,
0.031,-0.184,0.957,,,,,
0.01,-0.189,0.961,,,,,
0.021,-0.199,0.988,,,,,
0.033,-0.203,0.975,,,,,
0.035,-0.189,0.969,,,,,
0.012,-0.199,0.939,,,,,
0.014,-0.195,0.979,,,,,
0.029,-0.211,0.984,392,31.1,38.1,4044,2
0.035,-0.188,0.971,,,,,
0.027,-0.188,0.949,,,,,
0.012,-0.191,0.967,,,,,
0.021,-0.201,0.988,,,,,
0.033,-0.201,0.965,,,,,
0.033,-0.184,0.957,,,,,
0.014,-0.199,0.949,,,,,
0.018,-0.199,0.986,,,,,
0.025,-0.207,0.977,,,,,
0.037,-0.186,0.967,,,,,
0.027,-0.189,0.951,,,,,
0.014,-0.191,0.971,,,,,
0.023,-0.201,0.988,,,,,
0.031,-0.203,0.965,,,,,
0.033,-0.189,0.959,,,,,
0.014,-0.195,0.951,,,,,
0.016,-0.197,0.98,,,,,
0.027,-0.211,0.967,392,31.1,38.1,4220,2
0.035,-0.189,0.969,,,,,
0.025,-0.195,0.963,,,,,
0.014,-0.189,0.965,,,,,
0.025,-0.203,0.984,,,,,
0.033,-0.197,0.967,,,,,
0.033,-0.186,0.957,,,,,
0.01,-0.197,0.951,,,,,
0.018,-0.201,0.975,,,,,
0.021,-0.215,0.969,,,,,
0.035,-0.189,0.975,,,,,
0.033,-0.186,0.949,,,,,
0.014,-0.191,0.969,,,,,
0.02,-0.207,0.975,,,,,
0.031,-0.205,0.975,,,,,
0.031,-0.191,0.959,,,,,
0.008,-0.191,0.938,,,,,
0.012,-0.199,0.982,,,,,
0.029,-0.207,0.971,392,31.1,38.1,4396,2
0.039,-0.188,0.977,,,,,
0.021,-0.191,0.955,,,,,
0.014,-0.199,0.965,,,,,
0.021,-0.213,0.984,,,,,
0.035,-0.195,0.963,,,,,
0.037,-0.184,0.959,,,,,
0.012,-0.195,0.953,,,,,
0.02,-0.199,0.984,,,,,
0.027,-0.211,0.975,,,,,
0.037,-0.186,0.963,,,,,
0.021,-0.197,0.951,,,,,
0.012,-0.191,0.965,,,,,
0.027,-0.207,0.982,,,,,
0.033,-0.191,0.969,,,,,
0.035,-0.186,0.957,,,,,
0.014,-0.197,0.955,,,,,
0.018,-0.201,0.98,,,,,
0.029,-0.207,0.965,392,31.1,38.1,4572,2
0.031,-0.191,0.975,,,,,
0.021,-0.197,0.951,,,,,
0.012,-0.189,0.967,,,,,
0.025,-0.203,0.984,,,,,
0.035,-0.195,0.963,,,,,
0.031,-0.193,0.961,,,,,
0.01,-0.199,0.953,,,,,
0.02,-0.195,0.984,,,,,
0.027,-0.213,0.977,,,,,
0.039,-0.186,0.957,,,,,
0.01,-0.191,0.947,,,,,
0.018,-0.199,0.984,,,,,
0.029,-0.207,0.975,,,,,
0.033,-0.188,0.979,,,,,
0.027,-0.189,0.939,,,,,
0.012,-0.191,0.971,,,,,
0.025,-0.213,0.975,,,,,
0.035,-0.199,0.969,392,31.1,38.1,4748,2
0.029,-0.195,0.959,,,,,
0.012,-0.191,0.941,,,,,
0.018,-0.197,0.99,,,,,
0.033,-0.201,0.975,,,,,
0.035,-0.184,0.965,,,,,
0.018,-0.189,0.947,,,,,
0.014,-0.199,0.971,,,,,
0.023,-0.215,0.99,,,,,
0.031,-0.195,0.959,,,,,
0.035,-0.186,0.953,,,,,
0.01,-0.193,0.957,,,,,
0.021,-0.199,0.986,,,,,
0.027,-0.205,0.973,,,,,
0.035,-0.189,0.963,,,,,
0.021,-0.199,0.947,,,,,
0.008,-0.195,0.979,,,,,
0.027,-0.207,0.973,,,,,
0.033,-0.189,0.973,392,31.1,38.1,4923,2
0.027,-0.195,0.957,,,,,
0.014,-0.191,0.959,,,,,
0.018,-0.199,0.988,,,,,
0.031,-0.201,0.967,,,,,
0.033,-0.186,0.975,,,,,
0.02,-0.197,0.949,,,,,
0.014,-0.191,0.973,,,,,
0.025,-0.213,0.977,,,,,
0.039,-0.189,0.965,,,,,
0.031,-0.193,0.957,,,,,
0.008,-0.193,0.951,,,,,
0.023,-0.203,0.982,,,,,
0.029,-0.205,0.975,,,,,
0.035,-0.184,0.965,,,,,
0.018,-0.195,0.945,,,,,
0.018,-0.189,0.982,,,,,
0.029,-0.213,0.979,,,,,
0.035,-0.195,0.973,392,31.1,38.1,5099,2
0.027,-0.191,0.951,,,,,
0.01,-0.189,0.953,,,,,
0.021,-0.205,0.99,,,,,
0.033,-0.203,0.965,,,,,
0.029,-0.189,0.957,,,,,
0.014,-0.193,0.949,,,,,
0.018,-0.199,0.979,,,,,
0.025,-0.209,0.975,,,,,
0.039,-0.189,0.963,,,,,
0.023,-0.189,0.951,,,,,
0.012,-0.193,0.967,,,,,
0.02,-0.209,0.986,,,,,
0.027,-0.195,0.963,,,,,
0.033,-0.184,0.967,,,,,
0.014,-0.193,0.953,,,,,
0.02,-0.197,0.986,,,,,
0.029,-0.209,0.969,,,,,
0.031,-0.193,0.973,392,31.1,38.1,5275,2
0.027,-0.195,0.951,,,,,
0.012,-0.191,0.967,,,,,
0.021,-0.197,0.979,,,,,
0.033,-0.191,0.959,,,,,
0.029,-0.189,0.967,,,,,
0.014,-0.197,0.947,,,,,
0.02,-0.203,0.982,,,,,
0.027,-0.207,0.969,,,,,
0.037,-0.184,0.965,,,,,
0.029,-0.189,0.959,,,,,
0.008,-0.191,0.965,,,,,
0.021,-0.203,0.975,,,,,
0.033,-0.199,0.969,,,,,
0.035,-0.193,0.963,,,,,
0.01,-0.195,0.943,,,,,
0.018,-0.195,0.984,,,,,
0.031,-0.211,0.969,,,,,
0.033,-0.193,0.975,392,31.1,38.1,5451,2
0.023,-0.193,0.945,,,,,
0.012,-0.195,0.971,,,,,
0.021,-0.205,0.98,,,,,
0.033,-0.199,0.965,,,,,
0.033,-0.191,0.961,,,,,
0.008,-0.193,0.947,,,,,
0.021,-0.199,0.988,,,,,
0.029,-0.209,0.977,,,,,
0.035,-0.186,0.961,,,,,
0.027,-0.193,0.951,,,,,
0.01,-0.199,0.965,,,,,
0.021,-0.215,0.986,,,,,
0.029,-0.193,0.967,,,,,
0.035,-0.182,0.957,,,,,
0.012,-0.189,0.953,,,,,
0.018,-0.201,0.986,,,,,
0.029,-0.213,0.977,,,,,
0.039,-0.191,0.973,392,31.1,38.1,5626,2
0.023,-0.191,0.947,,,,,
0.014,-0.189,0.977,,,,,
0.027,-0.201,0.988,,,,,
0.035,-0.188,0.961,,,,,
0.035,-0.191,0.965,,,,,
0.012,-0.199,0.953,,,,,
0.02,-0.203,0.986,,,,,
0.027,-0.213,0.967,,,,,
0.037,-0.186,0.959,,,,,
0.021,-0.199,0.947,,,,,
0.012,-0.191,0.969,,,,,
0.021,-0.209,0.979,,,,,
0.035,-0.193,0.975,,,,,
0.033,-0.188,0.959,,,,,
0.01,-0.191,0.957,,,,,
0.025,-0.195,0.988,,,,,
0.031,-0.205,0.969,,,,,
0.031,-0.193,0.973,392,31.1,38.1,5802,2
0.021,-0.189,0.941,,,,,
0.01,-0.191,0.973,,,,,
0.025,-0.207,0.984,,,,,
0.033,-0.193,0.969,,,,,
0.031,-0.186,0.963,,,,,
0.012,-0.189,0.947,,,,,
0.018,-0.201,0.984,,,,,
0.027,-0.215,0.975,,,,,
0.033,-0.191,0.957,,,,,
0.021,-0.195,0.947,,,,,
0.014,-0.197,0.973,,,,,
0.023,-0.211,0.979,,,,,
0.031,-0.189,0.971,,,,,
0.033,-0.178,0.959,,,,,
0.012,-0.193,0.959,,,,,
0.021,-0.201,0.988,,,,,
0.031,-0.205,0.969,,,,,
0.033,-0.189,0.977,402,31.3,37.7,5978,2
0.02,-0.189,0.951,,,,,
0.014,-0.199,0.973,,,,,
0.023,-0.205,0.98,,,,,
0.035,-0.195,0.963,,,,,
0.025,-0.191,0.957,,,,,
0.012,-0.197,0.959,,,,,
0.021,-0.199,0.98,,,,,
0.027,-0.203,0.967,,,,,
0.039,-0.18,0.963,,,,,
0.016,-0.189,0.953,,,,,
0.014,-0.193,0.973,,,,,
0.023,-0.209,0.975,,,,,
0.031,-0.189,0.973,,,,,
0.035,-0.184,0.957,,,,,
0.01,-0.193,0.953,,,,,
0.021,-0.195,0.979,,,,,
0.031,-0.203,0.969,,,,,
0.035,-0.195,0.967,402,31.3,37.7,6154,2
0.016,-0.195,0.941,,,,,
0.014,-0.195,0.969,,,,,
0.025,-0.207,0.982,,,,,
0.035,-0.191,0.971,,,,,
0.029,-0.188,0.963,,,,,
0.01,-0.193,0.949,,,,,
0.021,-0.207,0.988,,,,,
0.031,-0.207,0.967,,,,,
0.035,-0.184,0.963,,,,,
0.014,-0.191,0.951,,,,,
0.014,-0.195,0.977,,,,,
0.025,-0.209,0.975,,,,,
0.035,-0.186,0.963,,,,,
0.033,-0.189,0.945,,,,,
0.01,-0.193,0.959,,,,,
0.021,-0.211,0.988,,,,,
0.029,-0.205,0.969,,,,,
0.037,-0.184,0.967,402,31.3,37.7,6330,2
0.016,-0.191,0.945,,,,,
0.012,-0.201,0.982,,,,,
0.027,-0.209,0.971,,,,,
0.035,-0.193,0.965,,,,,
0.025,-0.193,0.957,,,,,
0.01,-0.193,0.959,,,,,
0.023,-0.203,0.99,,,,,
0.031,-0.199,0.963,,,,,
0.035,-0.182,0.961,,,,,
0.014,-0.195,0.957,,,,,
0.016,-0.199,0.973,,,,,
0.023,-0.213,0.971,,,,,
0.035,-0.189,0.963,,,,,
0.031,-0.189,0.955,,,,,
0.01,-0.193,0.959,,,,,
0.021,-0.203,0.979,,,,,
0.033,-0.201,0.973,,,,,
0.033,-0.188,0.971,402,31.3,37.7,6505,2
0.014,-0.189,0.949,,,,,
0.014,-0.197,0.988,,,,,
0.025,-0.203,0.979,,,,,
0.035,-0.191,0.975,,,,,
0.023,-0.191,0.957,,,,,
0.01,-0.195,0.949,,,,,
0.021,-0.209,0.986,,,,,
0.033,-0.203,0.969,,,,,
0.033,-0.182,0.957,,,,,
0.012,-0.193,0.949,,,,,
0.02,-0.191,0.986,,,,,
0.027,-0.207,0.977,,,,,
0.035,-0.189,0.969,,,,,
0.027,-0.191,0.947,,,,,
0.008,-0.191,0.967,,,,,
0.025,-0.211,0.982,,,,,
0.031,-0.195,0.963,,,,,
0.031,-0.188,0.953,402,31.3,37.7,6681,2
0.012,-0.191,0.951,,,,,
0.018,-0.201,0.984,,,,,
0.031,-0.209,0.977,,,,,
0.035,-0.188,0.969,,,,,
0.023,-0.195,0.953,,,,,
0.01,-0.199,0.971,,,,,
0.021,-0.209,0.98,,,,,
0.033,-0.193,0.961,,,,,
0.035,-0.188,0.965,,,,,
0.014,-0.193,0.951,,,,,
0.02,-0.199,0.99,,,,,
0.031,-0.201,0.965,,,,,
0.031,-0.189,0.973,,,,,
0.023,-0.195,0.957,,,,,
0.014,-0.193,0.969,,,,,
0.025,-0.207,0.971,,,,,
0.035,-0.195,0.963,,,,,
0.031,-0.191,0.959,402,31.3,37.7,6857,2
0.016,-0.191,0.951,,,,,
0.018,-0.199,0.984,,,,,
0.035,-0.201,0.973,,,,,
0.035,-0.191,0.975,,,,,
0.018,-0.193,0.947,,,,,
0.012,-0.195,0.975,,,,,
0.021,-0.209,0.979,,,,,
0.039,-0.189,0.971,,,,,
0.033,-0.189,0.953,,,,,
0.01,-0.195,0.951,,,,,
0.018,-0.203,0.99,,,,,
0.029,-0.207,0.973,,,,,
0.033,-0.184,0.971,,,,,
0.016,-0.191,0.947,,,,,
0.012,-0.195,0.979,,,,,
0.027,-0.211,0.979,,,,,
0.029,-0.195,0.965,,,,,
0.029,-0.191,0.957,402,31.3,37.7,7033,2
0.014,-0.195,0.953,,,,,
0.02,-0.201,0.99,,,,,
0.035,-0.199,0.973,,,,,
0.037,-0.188,0.967,,,,,
0.018,-0.197,0.951,,,,,
0.018,-0.203,0.98,,,,,
0.027,-0.211,0.977,,,,,
0.037,-0.189,0.961,,,,,
0.027,-0.189,0.953,,,,,
0.01,-0.193,0.965,,,,,
0.025,-0.205,0.98,,,,,
0.035,-0.199,0.965,,,,,
0.029,-0.191,0.965,,,,,
0.018,-0.197,0.951,,,,,
0.021,-0.193,0.984,,,,,
0.025,-0.207,0.967,,,,,
0.035,-0.188,0.971,,,,,
0.027,-0.199,0.961,402,31.3,37.7,7209,2
0.016,-0.191,0.967,,,,,
0.023,-0.207,0.982,,,,,
0.037,-0.191,0.971,,,,,
0.031,-0.188,0.965,,,,,
0.012,-0.195,0.947,,,,,
0.02,-0.199,0.982,,,,,
0.027,-0.211,0.971,,,,,
0.035,-0.191,0.963,,,,,
0.023,-0.197,0.951,,,,,
0.01,-0.195,0.961,,,,,
0.021,-0.207,0.98,,,,,
0.033,-0.195,0.969,,,,,
0.033,-0.184,0.961,,,,,
0.014,-0.195,0.947,,,,,
0.02,-0.201,0.99,,,,,
0.031,-0.205,0.979,,,,,
0.031,-0.188,0.975,,,,,
0.02,-0.195,0.947,402,31.3,37.7,7384,2
0.014,-0.193,0.975,,,,,
0.025,-0.211,0.979,,,,,
0.031,-0.195,0.967,,,,,
0.027,-0.195,0.957,,,,,
0.012,-0.195,0.951,,,,,
0.02,-0.207,0.99,,,,,
0.035,-0.201,0.967,,,,,
0.035,-0.18,0.951,,,,,
0.014,-0.193,0.963,,,,,
0.023,-0.203,0.982,,,,,
0.025,-0.209,0.963,,,,,
0.035,-0.188,0.967,,,,,
0.02,-0.193,0.951,,,,,
0.016,-0.197,0.977,,,,,
0.027,-0.207,0.969,,,,,
0.035,-0.193,0.969,,,,,
0.029,-0.191,0.957,,,,,
0.012,-0.195,0.957,402,31.3,37.7,7560,2
0.021,-0.203,0.992,,,,,
0.033,-0.197,0.965,,,,,
0.033,-0.186,0.969,,,,,
0.016,-0.195,0.945,,,,,
0.016,-0.195,0.975,,,,,
0.023,-0.211,0.973,,,,,
0.033,-0.189,0.965,,,,,
0.029,-0.188,0.953,,,,,
0.01,-0.189,0.963,,,,,
0.023,-0.205,0.98,,,,,
0.029,-0.201,0.971,,,,,
0.033,-0.189,0.963,,,,,
0.01,-0.195,0.943,,,,,
0.016,-0.195,0.98,,,,,
0.033,-0.209,0.975,,,,,
0.035,-0.182,0.977,,,,,
0.025,-0.184,0.953,,,,,
0.012,-0.193,0.963,402,31.3,37.7,7736,2
0.02,-0.205,0.986,,,,,
0.035,-0.201,0.965,,,,,
0.029,-0.186,0.963,,,,,
0.01,-0.195,0.947,,,,,
0.021,-0.197,0.982,,,,,
0.027,-0.209,0.975,,,,,
0.035,-0.186,0.971,,,,,
0.025,-0.191,0.951,,,,,
0.014,-0.193,0.971,,,,,
0.021,-0.207,0.986,,,,,
0.031,-0.193,0.965,,,,,
0.031,-0.188,0.963,,,,,
0.014,-0.191,0.947,,,,,
0.018,-0.201,0.982,,,,,
0.031,-0.211,0.971,,,,,
0.035,-0.184,0.969,,,,,
0.025,-0.197,0.953,,,,,
0.012,-0.191,0.975,398,31.5,37.2,7912,2
0.023,-0.207,0.977,,,,,
0.037,-0.191,0.967,,,,,
0.033,-0.191,0.965,,,,,
0.012,-0.199,0.947,,,,,
0.016,-0.201,0.986,,,,,
0.027,-0.209,0.965,,,,,
0.037,-0.186,0.971,,,,,
0.023,-0.189,0.953,,,,,
0.014,-0.189,0.963,,,,,
0.021,-0.209,0.975,,,,,
0.033,-0.197,0.973,,,,,
0.031,-0.193,0.965,,,,,
0.01,-0.189,0.945,,,,,
0.021,-0.195,0.984,,,,,
0.029,-0.211,0.975,,,,,
0.035,-0.195,0.975,,,,,
0.025,-0.197,0.947,,,,,
0.014,-0.191,0.963,398,31.5,37.2,8087,2
0.021,-0.207,0.982,,,,,
0.033,-0.193,0.969,,,,,
0.033,-0.182,0.961,,,,,
0.01,-0.193,0.953,,,,,
0.02,-0.197,0.984,,,,,
0.027,-0.213,0.977,,,,,
0.037,-0.186,0.963,,,,,
0.023,-0.193,0.941,,,,,
0.016,-0.191,0.973,,,,,
0.021,-0.207,0.98,,,,,
0.033,-0.195,0.973,,,,,
0.033,-0.188,0.959,,,,,
0.014,-0.195,0.947,,,,,
0.02,-0.201,0.986,,,,,
0.027,-0.209,0.965,,,,,
0.035,-0.189,0.971,,,,,
0.021,-0.191,0.957,,,,,
0.01,-0.197,0.979,398,31.5,37.2,8263,2
0.025,-0.205,0.98,,,,,
0.037,-0.191,0.965,,,,,
0.033,-0.186,0.959,,,,,
0.01,-0.197,0.959,,,,,
0.021,-0.199,0.982,,,,,
0.027,-0.209,0.965,,,,,
0.035,-0.184,0.969,,,,,
0.018,-0.195,0.947,,,,,
0.01,-0.197,0.973,,,,,
0.023,-0.213,0.969,,,,,
0.033,-0.195,0.973,,,,,
0.035,-0.189,0.963,,,,,
0.01,-0.189,0.955,,,,,
0.02,-0.199,0.982,,,,,
0.037,-0.203,0.973,,,,,
0.031,-0.189,0.971,,,,,
0.014,-0.195,0.941,,,,,
0.016,-0.191,0.973,398,31.5,37.2,8439,2
0.027,-0.203,0.98,,,,,
0.039,-0.191,0.973,,,,,
0.029,-0.188,0.961,,,,,
0.01,-0.199,0.953,,,,,
0.023,-0.203,0.988,,,,,
0.029,-0.205,0.971,,,,,
0.035,-0.182,0.961,,,,,
0.014,-0.195,0.941,,,,,
0.018,-0.195,0.977,,,,,
0.025,-0.215,0.979,,,,,
0.033,-0.191,0.967,,,,,
0.031,-0.191,0.951,,,,,
0.01,-0.197,0.969,,,,,
0.025,-0.201,0.986,,,,,
0.033,-0.201,0.969,,,,,
0.035,-0.184,0.961,,,,,
0.014,-0.191,0.945,,,,,
0.014,-0.199,0.982,398,31.5,37.2,8615,2
0.025,-0.209,0.973,,,,,
0.033,-0.189,0.965,,,,,
0.027,-0.193,0.959,,,,,
0.014,-0.199,0.971,,,,,
0.023,-0.201,0.984,,,,,
0.035,-0.197,0.971,,,,,
0.031,-0.182,0.959,,,,,
0.014,-0.195,0.955,,,,,
0.02,-0.195,0.98,,,,,
0.027,-0.207,0.971,,,,,
0.031,-0.189,0.971,,,,,
0.025,-0.193,0.953,,,,,
0.01,-0.189,0.971,,,,,
0.027,-0.201,0.973,,,,,
0.033,-0.197,0.971,,,,,
0.031,-0.193,0.953,,,,,
0.012,-0.193,0.951,,,,,
0.021,-0.199,0.986,398,31.5,37.2,8791,2
0.031,-0.203,0.969,,,,,
0.031,-0.191,0.971,,,,,
0.018,-0.189,0.951,,,,,
0.012,-0.197,0.971,,,,,
0.023,-0.207,0.984,,,,,
0.035,-0.197,0.973,,,,,
0.035,-0.182,0.957,,,,,
0.01,-0.191,0.959,,,,,
0.021,-0.199,0.992,,,,,
0.029,-0.207,0.971,,,,,
0.031,-0.189,0.963,,,,,
0.021,-0.193,0.941,,,,,
0.008,-0.201,0.979,,,,,
0.027,-0.209,0.98,,,,,
0.035,-0.191,0.965,,,,,
0.031,-0.189,0.953,,,,,
0.012,-0.191,0.963,,,,,
0.021,-0.205,0.986,398,31.5,37.2,8966,2
0.031,-0.197,0.963,,,,,
0.033,-0.186,0.961,,,,,
0.016,-0.193,0.947,,,,,
0.014,-0.199,0.982,,,,,
0.023,-0.209,0.971,,,,,
0.035,-0.188,0.965,,,,,
0.027,-0.186,0.961,,,,,
0.008,-0.197,0.969,,,,,
0.021,-0.203,0.98,,,,,
0.035,-0.199,0.967,,,,,
0.031,-0.189,0.967,,,,,
0.014,-0.197,0.949,,,,,
0.014,-0.197,0.982,,,,,
0.027,-0.209,0.971,,,,,
0.035,-0.191,0.969,,,,,
0.029,-0.191,0.955,,,,,
0.014,-0.191,0.965,,,,,
0.025,-0.203,0.977,398,31.5,37.2,9142,2
0.033,-0.197,0.971,,,,,
0.031,-0.189,0.971,,,,,
0.01,-0.199,0.947,,,,,
0.012,-0.199,0.98,,,,,
0.025,-0.213,0.971,,,,,
0.035,-0.188,0.969,,,,,
0.025,-0.191,0.951,,,,,
0.012,-0.191,0.955,,,,,
0.021,-0.209,0.986,,,,,
0.031,-0.203,0.969,,,,,
0.035,-0.186,0.961,,,,,
0.012,-0.193,0.945,,,,,
0.018,-0.195,0.986,,,,,
0.027,-0.207,0.975,,,,,
0.035,-0.191,0.975,,,,,
0.023,-0.193,0.941,,,,,
0.012,-0.189,0.963,,,,,
0.021,-0.207,0.99,398,31.5,37.2,9318,2
0.035,-0.189,0.959,,,,,
0.029,-0.189,0.961,,,,,
0.012,-0.197,0.947,,,,,
0.018,-0.203,0.982,,,,,
0.027,-0.215,0.973,,,,,
0.037,-0.184,0.961,,,,,
0.025,-0.193,0.951,,,,,
0.01,-0.195,0.975,,,,,
0.025,-0.203,0.975,,,,,
0.031,-0.199,0.971,,,,,
0.033,-0.189,0.959,,,,,
0.014,-0.193,0.953,,,,,
0.02,-0.193,0.996,,,,,
0.035,-0.209,0.963,,,,,
0.033,-0.189,0.977,,,,,
0.021,-0.203,0.953,,,,,
0.006,-0.191,0.963,,,,,
0.021,-0.209,0.98,398,31.5,37.2,9494,2
0.033,-0.193,0.965,,,,,
0.029,-0.186,0.961,,,,,
0.012,-0.191,0.947,,,,,
0.018,-0.197,0.986,,,,,
0.027,-0.213,0.971,,,,,
0.033,-0.191,0.967,,,,,
0.021,-0.193,0.951,,,,,
0.014,-0.195,0.965,,,,,
0.021,-0.211,0.975,,,,,
0.029,-0.193,0.969,,,,,
0.035,-0.186,0.965,,,,,
0.014,-0.195,0.957,,,,,
0.02,-0.197,0.988,,,,,
0.029,-0.213,0.975,,,,,
0.031,-0.191,0.971,,,,,
0.016,-0.195,0.939,,,,,
0.01,-0.195,0.971,,,,,
0.021,-0.211,0.98,398,31.5,37.2,9669,2
0.031,-0.191,0.967,,,,,
0.031,-0.191,0.965,,,,,
0.014,-0.193,0.955,,,,,
0.021,-0.203,0.99,,,,,
0.031,-0.207,0.971,,,,,
0.037,-0.18,0.959,,,,,
0.02,-0.195,0.949,,,,,
0.01,-0.197,0.963,,,,,
0.025,-0.215,0.977,,,,,
0.031,-0.193,0.967,,,,,
0.031,-0.188,0.959,,,,,
0.014,-0.191,0.967,,,,,
0.021,-0.193,0.986,,,,,
0.031,-0.207,0.971,,,,,
0.035,-0.193,0.979,,,,,
0.021,-0.205,0.947,,,,,
0.008,-0.186,0.969,,,,,
0.023,-0.211,0.982,365,31.7,36.6,9845,2
0.035,-0.186,0.963,,,,,
0.031,-0.191,0.969,,,,,
0.012,-0.191,0.953,,,,,
0.02,-0.195,0.982,,,,,
0.027,-0.209,0.971,,,,,
0.039,-0.188,0.963,,,,,
0.018,-0.191,0.947,,,,,
0.012,-0.191,0.967,,,,,
0.02,-0.215,0.979,,,,,
0.031,-0.199,0.973,,,,,
0.035,-0.188,0.963,,,,,
0.014,-0.195,0.951,,,,,
0.021,-0.195,0.988,,,,,
0.029,-0.207,0.975,,,,,
0.035,-0.189,0.979,,,,,
0.018,-0.189,0.936,,,,,
0.012,-0.191,0.975,,,,,
0.025,-0.213,0.986,365,31.7,36.6,10021,2
0.035,-0.191,0.963,,,,,
0.029,-0.189,0.963,,,,,
0.01,-0.193,0.941,,,,,
0.023,-0.201,0.992,,,,,
0.031,-0.213,0.965,,,,,
0.033,-0.186,0.957,,,,,
0.018,-0.201,0.947,,,,,
0.01,-0.191,0.971,,,,,
0.025,-0.213,0.975,,,,,
0.031,-0.191,0.965,,,,,
0.033,-0.188,0.957,,,,,
0.016,-0.195,0.959,,,,,
0.023,-0.195,0.986,,,,,
0.029,-0.207,0.971,,,,,
0.035,-0.186,0.971,,,,,
0.023,-0.193,0.951,,,,,
0.016,-0.191,0.977,,,,,
0.02,-0.209,0.971,365,31.7,36.6,10197,2
0.033,-0.195,0.967,,,,,
0.027,-0.193,0.959,,,,,
0.01,-0.195,0.957,,,,,
0.02,-0.203,0.986,,,,,
0.039,-0.188,0.977,,,,,
0.031,-0.186,0.959,,,,,
0.016,-0.197,0.949,,,,,
0.021,-0.207,0.982,,,,,
0.029,-0.207,0.963,,,,,
0.033,-0.193,0.971,,,,,
0.018,-0.188,0.939,,,,,
0.01,-0.189,0.969,,,,,
0.025,-0.211,0.982,,,,,
0.033,-0.199,0.975,,,,,
0.029,-0.195,0.951,,,,,
0.012,-0.188,0.949,,,,,
0.023,-0.197,0.99,,,,,
0.037,-0.199,0.965,365,31.7,36.6,10373,2
0.031,-0.188,0.971,,,,,
0.016,-0.191,0.945,,,,,
0.008,-0.199,0.977,,,,,
0.021,-0.215,0.984,,,,,
0.035,-0.191,0.953,,,,,
0.033,-0.186,0.951,,,,,
0.012,-0.191,0.959,,,,,
0.021,-0.205,0.986,,,,,
0.029,-0.207,0.973,,,,,
0.033,-0.188,0.965,,,,,
0.021,-0.189,0.947,,,,,
0.014,-0.193,0.982,,,,,
0.029,-0.209,0.971,,,,,
0.033,-0.189,0.967,,,,,
0.027,-0.193,0.963,,,,,
0.012,-0.195,0.957,,,,,
0.02,-0.201,0.986,,,,,
0.031,-0.199,0.959,365,31.7,36.6,10548,2
0.037,-0.188,0.975,,,,,
0.018,-0.195,0.949,,,,,
0.012,-0.191,0.969,,,,,
0.025,-0.211,0.977,,,,,
0.039,-0.191,0.971,,,,,
0.033,-0.189,0.957,,,,,
0.004,-0.193,0.947,,,,,
0.02,-0.205,0.982,,,,,
0.035,-0.199,0.973,,,,,
0.035,-0.189,0.973,,,,,
0.02,-0.188,0.941,,,,,
0.014,-0.191,0.977,,,,,
0.027,-0.213,0.982,,,,,
0.031,-0.195,0.975,,,,,
0.025,-0.195,0.959,,,,,
0.008,-0.186,0.953,,,,,
0.02,-0.205,0.992,,,,,
0.033,-0.203,0.965,365,31.7,36.6,10724,2
0.031,-0.186,0.965,,,,,
0.014,-0.193,0.949,,,,,
0.014,-0.195,0.979,,,,,
0.025,-0.213,0.982,,,,,
0.037,-0.184,0.965,,,,,
0.031,-0.184,0.957,,,,,
0.01,-0.191,0.959,,,,,
0.02,-0.207,0.984,,,,,
0.029,-0.203,0.971,,,,,
0.035,-0.189,0.967,,,,,
0.021,-0.197,0.951,,,,,
0.014,-0.193,0.975,,,,,
0.027,-0.211,0.973,,,,,
0.033,-0.193,0.971,,,,,
0.027,-0.191,0.959,,,,,
0.01,-0.199,0.953,,,,,
0.02,-0.201,0.986,,,,,
0.033,-0.199,0.957,365,31.7,36.6,10900,2
0.035,-0.189,0.971,,,,,
0.018,-0.193,0.955,,,,,
0.014,-0.193,0.977,,,,,
0.025,-0.209,0.975,,,,,
0.039,-0.189,0.975,,,,,
0.029,-0.191,0.955,,,,,
0.008,-0.195,0.951,,,,,
0.018,-0.207,0.975,,,,,
0.029,-0.201,0.965,,,,,
0.035,-0.188,0.965,,,,,
0.016,-0.195,0.943,,,,,
0.014,-0.189,0.98,,,,,
0.031,-0.213,0.98,,,,,
0.035,-0.193,0.979,,,,,
0.029,-0.189,0.949,,,,,
0.01,-0.191,0.955,,,,,
0.021,-0.203,0.996,,,,,
0.035,-0.199,0.965,365,31.7,36.6,11076,2
0.031,-0.193,0.969,,,,,
0.012,-0.193,0.943,,,,,
0.02,-0.195,0.988,,,,,
0.023,-0.213,0.98,,,,,
0.033,-0.184,0.965,,,,,
0.027,-0.186,0.951,,,,,
0.008,-0.191,0.961,,,,,
0.018,-0.213,0.988,,,,,
0.025,-0.207,0.959,,,,,
0.035,-0.191,0.965,,,,,
0.014,-0.193,0.947,,,,,
0.018,-0.191,0.986,,,,,
0.029,-0.207,0.965,,,,,
0.035,-0.189,0.973,,,,,
0.025,-0.189,0.953,,,,,
0.01,-0.197,0.967,,,,,
0.02,-0.207,0.986,,,,,
0.033,-0.197,0.957,365,31.7,36.6,11252,2
0.035,-0.188,0.971,,,,,
0.012,-0.193,0.949,,,,,
0.018,-0.191,0.977,,,,,
0.025,-0.213,0.975,,,,,
0.035,-0.193,0.967,,,,,
0.029,-0.193,0.955,,,,,
0.008,-0.193,0.957,,,,,
0.021,-0.209,0.984,,,,,
0.031,-0.197,0.967,,,,,
0.033,-0.189,0.965,,,,,
0.014,-0.191,0.943,,,,,
0.016,-0.195,0.98,,,,,
0.029,-0.209,0.977,,,,,
0.035,-0.191,0.979,,,,,
0.021,-0.189,0.951,,,,,
0.01,-0.191,0.959,,,,,
0.02,-0.203,0.98,,,,,
0.033,-0.201,0.967,365,31.7,36.6,11427,2
0.033,-0.189,0.961,,,,,
0.012,-0.197,0.943,,,,,
0.018,-0.195,0.99,,,,,
0.027,-0.211,0.975,,,,,
0.035,-0.186,0.965,,,,,
0.025,-0.188,0.949,,,,,
0.014,-0.191,0.971,,,,,
0.025,-0.211,0.979,,,,,
0.031,-0.195,0.959,,,,,
0.033,-0.188,0.959,,,,,
0.012,-0.191,0.945,,,,,
0.023,-0.197,0.984,,,,,
0.025,-0.209,0.969,,,,,
0.035,-0.188,0.961,,,,,
0.025,-0.199,0.951,,,,,
0.008,-0.195,0.975,,,,,
0.023,-0.207,0.977,,,,,
0.031,-0.191,0.963,365,31.7,36.6,11603,2
0.033,-0.191,0.957,,,,,
0.012,-0.197,0.947,,,,,
0.016,-0.197,0.984,,,,,
0.027,-0.213,0.973,,,,,
0.035,-0.186,0.967,,,,,
0.025,-0.191,0.951,,,,,
0.012,-0.191,0.967,,,,,
0.023,-0.207,0.973,,,,,
0.031,-0.197,0.971,,,,,
0.033,-0.184,0.961,,,,,
0.012,-0.195,0.947,,,,,
0.02,-0.197,0.982,,,,,
0.027,-0.209,0.969,,,,,
0.033,-0.193,0.971,,,,,
0.021,-0.193,0.941,,,,,
0.014,-0.193,0.969,,,,,
0.025,-0.203,0.982,,,,,
0.033,-0.195,0.971,167,31.7,36.1,11779,2
0.027,-0.189,0.955,,,,,
0.01,-0.191,0.955,,,,,
0.02,-0.203,0.99,,,,,
0.027,-0.211,0.969,,,,,
0.035,-0.184,0.957,,,,,
0.016,-0.191,0.939,,,,,
0.01,-0.195,0.977,,,,,
0.025,-0.211,0.979,,,,,
0.031,-0.193,0.969,,,,,
0.033,-0.182,0.951,,,,,
0.01,-0.189,0.957,,,,,
0.021,-0.201,0.99,,,,,
0.029,-0.203,0.969,,,,,
0.035,-0.193,0.967,,,,,
0.014,-0.193,0.949,,,,,
0.014,-0.201,0.982,,,,,
0.025,-0.203,0.975,,,,,
0.035,-0.189,0.963,167,31.7,36.1,11955,2
0.027,-0.188,0.957,,,,,
0.01,-0.197,0.953,,,,,
0.023,-0.205,0.984,,,,,
0.031,-0.205,0.963,,,,,
0.035,-0.188,0.963,,,,,
0.018,-0.195,0.947,,,,,
0.01,-0.191,0.973,,,,,
0.027,-0.213,0.969,,,,,
0.033,-0.195,0.973,,,,,
0.033,-0.191,0.949,,,,,
0.008,-0.195,0.955,,,,,
0.021,-0.203,0.984,,,,,
0.033,-0.201,0.969,,,,,
0.033,-0.188,0.975,,,,,
0.016,-0.189,0.939,,,,,
0.012,-0.193,0.98,,,,,
0.027,-0.213,0.979,,,,,
0.035,-0.197,0.973,167,31.7,36.1,12130,2
0.027,-0.193,0.955,,,,,
0.01,-0.191,0.953,,,,,
0.021,-0.205,0.988,,,,,
0.035,-0.201,0.965,,,,,
0.031,-0.182,0.955,,,,,
0.018,-0.191,0.943,,,,,
0.014,-0.195,0.986,,,,,
0.027,-0.211,0.98,,,,,
0.033,-0.186,0.963,,,,,
0.029,-0.189,0.947,,,,,
0.01,-0.193,0.961,,,,,
0.025,-0.209,0.977,,,,,
0.031,-0.203,0.961,,,,,
0.033,-0.186,0.959,,,,,
0.014,-0.193,0.945,,,,,
0.016,-0.193,0.984,,,,,
0.027,-0.209,0.977,,,,,
0.035,-0.189,0.965,167,31.7,36.1,12306,2
0.023,-0.193,0.957,,,,,
0.012,-0.195,0.963,,,,,
0.025,-0.209,0.988,,,,,
0.033,-0.195,0.963,,,,,
0.031,-0.182,0.967,,,,,
0.014,-0.189,0.957,,,,,
0.014,-0.197,0.98,,,,,
0.027,-0.211,0.975,,,,,
0.033,-0.188,0.967,,,,,
0.027,-0.191,0.951,,,,,
0.012,-0.191,0.965,,,,,
0.021,-0.209,0.975,,,,,
0.031,-0.201,0.971,,,,,
0.033,-0.189,0.959,,,,,
0.014,-0.191,0.945,,,,,
0.018,-0.195,0.984,,,,,
0.029,-0.203,0.977,,,,,
0.033,-0.193,0.975,167,31.7,36.1,12482,2
0.023,-0.193,0.951,,,,,
0.01,-0.197,0.959,,,,,
0.025,-0.211,0.984,,,,,
0.031,-0.195,0.975,,,,,
0.035,-0.182,0.957,,,,,
0.008,-0.191,0.947,,,,,
0.021,-0.195,0.988,,,,,
0.027,-0.211,0.977,,,,,
0.029,-0.188,0.971,,,,,
0.025,-0.193,0.943,,,,,
0.008,-0.195,0.971,,,,,
0.027,-0.209,0.98,,,,,
0.031,-0.191,0.967,,,,,
0.033,-0.184,0.959,,,,,
0.012,-0.191,0.959,,,,,
0.02,-0.201,0.986,,,,,
0.029,-0.207,0.979,,,,,
0.035,-0.186,0.971,167,31.7,36.1,12658,2
0.02,-0.193,0.951,,,,,
0.014,-0.195,0.975,,,,,
0.027,-0.209,0.982,,,,,
0.031,-0.191,0.963,,,,,
0.033,-0.188,0.953,,,,,
0.008,-0.199,0.957,,,,,
0.021,-0.197,0.98,,,,,
0.027,-0.201,0.963,,,,,
0.033,-0.184,0.967,,,,,
0.02,-0.191,0.951,,,,,
0.014,-0.195,0.975,,,,,
0.027,-0.211,0.969,,,,,
0.031,-0.195,0.967,,,,,
0.033,-0.189,0.967,,,,,
0.01,-0.189,0.961,,,,,
0.021,-0.197,0.992,,,,,
0.033,-0.199,0.971,,,,,
0.033,-0.186,0.971,167,31.7,36.1,12834,2
0.014,-0.197,0.943,,,,,
0.01,-0.197,0.967,,,,,
0.021,-0.217,0.977,,,,,
0.039,-0.189,0.965,,,,,
0.033,-0.189,0.959,,,,,
0.01,-0.193,0.957,,,,,
0.02,-0.201,0.982,,,,,
0.027,-0.209,0.977,,,,,
0.035,-0.184,0.965,,,,,
0.014,-0.193,0.936,,,,,
0.016,-0.191,0.986,,,,,
0.025,-0.207,0.977,,,,,
0.033,-0.191,0.971,,,,,
0.025,-0.191,0.953,,,,,
0.01,-0.189,0.957,,,,,
0.021,-0.205,0.988,,,,,
0.029,-0.199,0.971,,,,,
0.035,-0.188,0.961,167,31.7,36.1,13009,2
0.012,-0.195,0.969,,,,,
0.021,-0.205,0.986,,,,,
0.031,-0.203,0.963,,,,,
0.035,-0.184,0.959,,,,,
0.014,-0.195,0.947,,,,,
0.014,-0.195,0.982,,,,,
0.025,-0.209,0.969,,,,,
0.029,-0.191,0.977,,,,,
0.033,-0.191,0.957,,,,,
0.01,-0.193,0.961,,,,,
0.023,-0.199,0.98,,,,,
0.031,-0.199,0.965,,,,,
0.035,-0.188,0.965,,,,,
0.012,-0.195,0.947,,,,,
0.018,-0.191,0.982,,,,,
0.031,-0.205,0.975,,,,,
0.035,-0.191,0.971,,,,,
0.029,-0.191,0.953,167,31.7,36.1,13185,2
0.008,-0.195,0.957,,,,,
0.025,-0.205,0.979,,,,,
0.033,-0.199,0.975,,,,,
0.033,-0.189,0.959,,,,,
0.01,-0.195,0.938,,,,,
0.018,-0.195,0.98,,,,,
0.027,-0.211,0.975,,,,,
0.033,-0.191,0.977,,,,,
0.027,-0.186,0.945,,,,,
0.014,-0.188,0.967,,,,,
0.023,-0.207,0.982,,,,,
0.031,-0.203,0.969,,,,,
0.033,-0.188,0.965,,,,,
0.012,-0.191,0.941,,,,,
0.02,-0.195,0.988,,,,,
0.027,-0.211,0.979,,,,,
0.031,-0.189,0.963,,,,,
0.023,-0.191,0.949,167,31.7,36.1,13361,2
0.014,-0.195,0.969,,,,,
0.023,-0.205,0.988,,,,,
0.031,-0.195,0.959,,,,,
0.033,-0.186,0.955,,,,,
0.014,-0.191,0.945,,,,,
0.014,-0.199,0.982,,,,,
0.025,-0.213,0.971,,,,,
0.031,-0.188,0.969,,,,,
0.029,-0.186,0.957,,,,,
0.008,-0.191,0.973,,,,,
0.025,-0.201,0.975,,,,,
0.031,-0.199,0.967,,,,,
0.035,-0.191,0.965,,,,,
0.014,-0.199,0.947,,,,,
0.018,-0.195,0.982,,,,,
0.027,-0.207,0.969,,,,,
0.033,-0.186,0.979,,,,,
0.027,-0.189,0.955,167,31.7,36.1,13537,2
0.01,-0.191,0.959,,,,,
0.027,-0.205,0.979,,,,,
0.031,-0.199,0.975,,,,,
0.037,-0.189,0.969,,,,,
0.012,-0.195,0.943,,,,,
0.023,-0.193,0.99,,,,,
0.031,-0.211,0.971,,,,,
0.031,-0.191,0.971,,,,,
0.025,-0.189,0.943,,,,,
0.01,-0.197,0.965,,,,,
0.025,-0.209,0.98,,,,,
0.035,-0.197,0.973,,,,,
0.029,-0.186,0.957,,,,,
0.018,-0.191,0.947,,,,,
0.018,-0.195,0.986,,,,,
0.027,-0.207,0.977,,,,,
0.033,-0.186,0.969,,,,,
0.021,-0.189,0.945,0,31.8,35.9,13712,2
0.014,-0.195,0.971,,,,,
0.025,-0.209,0.984,,,,,
0.033,-0.193,0.965,,,,,
0.033,-0.188,0.957,,,,,
0.014,-0.191,0.955,,,,,
0.021,-0.197,0.99,,,,,
0.029,-0.207,0.965,,,,,
0.033,-0.186,0.971,,,,,
0.021,-0.191,0.945,,,,,
0.01,-0.191,0.975,,,,,
0.027,-0.207,0.975,,,,,
0.031,-0.193,0.963,,,,,
0.031,-0.193,0.955,,,,,
0.012,-0.195,0.959,,,,,
0.023,-0.195,0.982,,,,,
0.033,-0.201,0.967,,,,,
0.035,-0.186,0.967,,,,,
0.023,-0.195,0.951,0,31.8,35.9,13888,2
0.008,-0.195,0.969,,,,,
0.025,-0.209,0.973,,,,,
0.033,-0.193,0.967,,,,,
0.031,-0.189,0.955,,,,,
0.014,-0.193,0.955,,,,,
0.02,-0.197,0.977,,,,,
0.033,-0.205,0.969,,,,,
0.031,-0.189,0.971,,,,,
0.018,-0.193,0.945,,,,,
0.016,-0.191,0.975,,,,,
0.025,-0.207,0.977,,,,,
0.035,-0.195,0.975,,,,,
0.025,-0.186,0.949,,,,,
0.012,-0.191,0.949,,,,,
0.02,-0.203,0.988,,,,,
0.033,-0.203,0.969,,,,,
0.029,-0.186,0.961,,,,,
0.014,-0.195,0.947,0,31.8,35.9,14064,2
0.016,-0.197,0.977,,,,,
0.025,-0.215,0.979,,,,,
0.035,-0.189,0.965,,,,,
0.031,-0.189,0.951,,,,,
0.006,-0.195,0.967,,,,,
0.021,-0.209,0.984,,,,,
0.031,-0.197,0.971,,,,,
0.035,-0.188,0.967,,,,,
0.018,-0.189,0.953,,,,,
0.014,-0.201,0.986,,,,,
0.029,-0.209,0.967,,,,,
0.033,-0.189,0.965,,,,,
0.027,-0.195,0.953,,,,,
0.01,-0.197,0.957,,,,,
0.018,-0.203,0.979,,,,,
0.035,-0.199,0.959,,,,,
0.029,-0.182,0.965,,,,,
0.014,-0.195,0.951,0,31.8,35.9,14240,2
0.018,-0.191,0.979,,,,,
0.025,-0.209,0.971,,,,,
0.035,-0.184,0.977,,,,,
0.025,-0.195,0.945,,,,,
0.012,-0.193,0.963,,,,,
0.023,-0.207,0.975,,,,,
0.035,-0.188,0.975,,,,,
0.035,-0.188,0.971,,,,,
0.014,-0.191,0.945,,,,,
0.016,-0.199,0.986,,,,,
0.031,-0.213,0.973,,,,,
0.035,-0.189,0.973,,,,,
0.021,-0.199,0.951,,,,,
0.012,-0.189,0.963,,,,,
0.021,-0.205,0.99,,,,,
0.039,-0.193,0.969,,,,,
0.031,-0.182,0.961,,,,,
0.012,-0.193,0.947,0,31.8,35.9,14416,2
0.021,-0.193,0.986,,,,,
0.031,-0.209,0.971,,,,,
0.037,-0.178,0.961,,,,,
0.018,-0.191,0.939,,,,,
0.014,-0.195,0.977,,,,,
0.021,-0.213,0.979,,,,,
0.031,-0.199,0.969,,,,,
0.033,-0.188,0.961,,,,,
0.012,-0.191,0.955,,,,,
0.025,-0.199,0.986,,,,,
0.029,-0.201,0.967,,,,,
0.033,-0.186,0.973,,,,,
0.018,-0.195,0.951,,,,,
0.01,-0.195,0.979,,,,,
0.027,-0.209,0.98,,,,,
0.031,-0.186,0.963,,,,,
0.033,-0.189,0.959,,,,,
0.012,-0.189,0.957,0,31.8,35.9,14591,2
0.023,-0.199,0.986,,,,,
0.033,-0.209,0.973,,,,,
0.031,-0.188,0.963,,,,,
0.016,-0.197,0.947,,,,,
0.014,-0.189,0.965,,,,,
0.025,-0.209,0.969,,,,,
0.029,-0.193,0.971,,,,,
0.031,-0.188,0.953,,,,,
0.006,-0.193,0.963,,,,,
0.023,-0.195,0.98,,,,,
0.031,-0.205,0.973,,,,,
0.033,-0.188,0.973,,,,,
0.016,-0.188,0.943,,,,,
0.014,-0.189,0.977,,,,,
0.023,-0.207,0.979,,,,,
0.033,-0.195,0.971,,,,,
0.027,-0.191,0.957,,,,,
0.008,-0.191,0.953,0,31.8,35.9,14767,2
0.021,-0.207,0.984,,,,,
0.031,-0.205,0.971,,,,,
0.031,-0.182,0.959,,,,,
0.016,-0.193,0.943,,,,,
0.018,-0.195,0.982,,,,,
0.025,-0.217,0.971,,,,,
0.033,-0.188,0.969,,,,,
0.035,-0.186,0.947,,,,,
0.012,-0.184,0.965,,,,,
0.023,-0.199,0.982,,,,,
0.029,-0.199,0.969,,,,,
0.033,-0.189,0.969,,,,,
0.012,-0.191,0.941,,,,,
0.016,-0.201,0.982,,,,,
0.029,-0.205,0.969,,,,,
0.031,-0.188,0.969,,,,,
0.027,-0.191,0.959,,,,,
0.01,-0.195,0.965,0,31.8,35.9,14943,2
0.021,-0.201,0.984,,,,,
0.029,-0.205,0.965,,,,,
0.035,-0.182,0.963,,,,,
0.014,-0.191,0.947,,,,,
0.018,-0.186,0.984,,,,,
0.027,-0.205,0.971,,,,,
0.031,-0.189,0.977,,,,,
0.033,-0.195,0.957,,,,,
0.01,-0.191,0.957,,,,,
0.021,-0.205,0.979,,,,,
0.031,-0.201,0.965,,,,,
0.031,-0.191,0.967,,,,,
0.018,-0.193,0.941,,,,,
0.016,-0.191,0.982,,,,,
0.027,-0.209,0.973,,,,,
0.037,-0.189,0.979,,,,,
0.025,-0.193,0.949,,,,,
0.008,-0.193,0.955,0,31.8,35.9,15119,2
0.02,-0.205,0.984,,,,,
0.033,-0.199,0.973,,,,,
0.035,-0.186,0.969,,,,,
0.012,-0.195,0.939,,,,,
0.018,-0.193,0.988,,,,,
0.027,-0.215,0.977,,,,,
0.035,-0.188,0.969,,,,,
0.027,-0.186,0.947,,,,,
0.008,-0.189,0.971,,,,,
0.025,-0.213,0.982,,,,,
0.027,-0.201,0.963,,,,,
0.033,-0.191,0.969,,,,,
0.016,-0.189,0.951,,,,,
0.018,-0.191,0.994,,,,,
0.031,-0.207,0.973,,,,,
0.035,-0.186,0.971,,,,,
0.029,-0.197,0.953,,,,,
0.008,-0.191,0.965,0,31.8,35.9,15294,2
0.02,-0.209,0.986,,,,,
0.035,-0.193,0.967,,,,,
0.035,-0.189,0.965,,,,,
0.014,-0.197,0.951,,,,,
0.018,-0.193,0.982,,,,,
0.027,-0.217,0.975,,,,,
0.031,-0.191,0.977,,,,,
0.027,-0.191,0.941,,,,,
0.006,-0.191,0.963,,,,,
0.025,-0.207,0.986,,,,,
0.031,-0.199,0.969,,,,,
0.033,-0.193,0.973,,,,,
0.016,-0.189,0.945,,,,,
0.018,-0.191,0.98,,,,,
0.027,-0.209,0.969,,,,,
0.037,-0.191,0.975,,,,,
0.023,-0.193,0.951,,,,,
0.01,-0.189,0.959,0,31.8,35.9,15470,2
0.021,-0.209,0.982,,,,,
0.031,-0.197,0.965,,,,,
0.039,-0.186,0.957,,,,,
0.008,-0.197,0.945,,,,,
0.02,-0.199,0.986,,,,,
0.027,-0.215,0.977,,,,,
0.035,-0.186,0.969,,,,,
0.012,-0.193,0.947,,,,,
0.02,-0.195,0.984,,,,,
0.031,-0.211,0.975,,,,,
0.037,-0.188,0.977,,,,,
0.021,-0.197,0.947,,,,,
0.006,-0.197,0.965,,,,,
0.023,-0.207,0.986,,,,,
0.031,-0.191,0.965,,,,,
0.031,-0.191,0.957,,,,,
0.01,-0.193,0.98,,,,,
-0.006,-0.24,0.934,0,31.9,35.7,15646,2
-0.021,-0.291,0.846,,,,,
-0.012,-0.246,0.92,,,,,
0,-0.234,0.92,,,,,
0,-0.223,0.939,,,,,
0.02,-0.217,0.959,,,,,
0.029,-0.195,0.975,,,,,
0.041,-0.176,0.982,,,,,
0.014,-0.182,0.969,,,,,
0.018,-0.182,0.988,,,,,
0.031,-0.193,0.967,,,,,
0.039,-0.182,0.988,,,,,
0.023,-0.191,0.947,,,,,
0.012,-0.191,0.963,,,,,
0.021,-0.213,0.982,,,,,
0.031,-0.207,0.967,,,,,
0.031,-0.203,0.963,,,,,
0.01,-0.195,0.943,,,,,
0.021,-0.199,0.98,0,31.9,35.7,15822,2
0.031,-0.207,0.969,,,,,
0.031,-0.186,0.963,,,,,
0.023,-0.188,0.947,,,,,
0.01,-0.191,0.963,,,,,
0.02,-0.211,0.99,,,,,
0.008,-0.234,1.059,,,,,
0.037,-0.201,0.955,,,,,
0.008,-0.186,0.91,,,,,
0.018,-0.17,0.93,,,,,
0.008,-0.191,0.961,,,,,
0.027,-0.168,0.977,,,,,
0.014,-0.186,0.945,,,,,
0.02,-0.174,0.998,,,,,
0.066,-0.186,0.955,,,,,
0.074,-0.17,0.99,,,,,
0.051,-0.178,0.963,,,,,
0.018,-0.189,0.973,,,,,
0.018,-0.193,0.988,0,31.9,35.7,15998,2
0.027,-0.213,0.969,,,,,
0.029,-0.186,0.947,,,,,
0.008,-0.199,0.934,,,,,
0.008,-0.193,0.965,,,,,
0.023,-0.207,0.975,,,,,
0.031,-0.191,0.979,,,,,
0.035,-0.186,0.971,,,,,
0.01,-0.195,0.957,,,,,
0.014,-0.199,1,,,,,
0.018,-0.213,0.971,,,,,
0.033,-0.184,0.986,,,,,
0.031,-0.195,0.938,,,,,
0.014,-0.186,0.961,,,,,
0.021,-0.213,0.975,,,,,
0.035,-0.193,0.979,,,,,
0.031,-0.195,0.971,,,,,
0.004,-0.191,0.951,,,,,
0.021,-0.201,0.986,0,31.9,35.7,16174,2
0.027,-0.207,0.967,,,,,
0.033,-0.191,0.971,,,,,
0.014,-0.188,0.941,,,,,
0.01,-0.191,0.975,,,,,
0.023,-0.207,0.984,,,,,
0.029,-0.197,0.971,,,,,
0.031,-0.186,0.961,,,,,
0.006,-0.197,0.957,,,,,
0.021,-0.199,0.992,,,,,
0.025,-0.211,0.965,,,,,
0.033,-0.182,0.975,,,,,
0.016,-0.197,0.938,,,,,
0.014,-0.189,0.971,,,,,
0.029,-0.217,0.977,,,,,
0.029,-0.186,0.969,,,,,
0.029,-0.191,0.953,,,,,
0.01,-0.191,0.955,,,,,
0.016,-0.207,0.998,0,31.9,35.7,16350,2
0.033,-0.207,0.957,,,,,
0.031,-0.191,0.971,,,,,
0.018,-0.195,0.945,,,,,
0.01,-0.195,0.977,,,,,
0.027,-0.207,0.973,,,,,
0.031,-0.193,0.969,,,,,
0.029,-0.191,0.957,,,,,
0.01,-0.191,0.955,,,,,
0.021,-0.201,0.982,,,,,
0.027,-0.209,0.963,,,,,
0.037,-0.191,0.975,,,,,
0.021,-0.193,0.945,,,,,
0.014,-0.197,0.979,,,,,
0.027,-0.213,0.977,,,,,
0.033,-0.191,0.979,,,,,
0.031,-0.193,0.957,,,,,
0.006,-0.195,0.951,,,,,
0.02,-0.199,0.982,0,31.9,35.7,16526,2
0.031,-0.203,0.967,,,,,
0.035,-0.189,0.973,,,,,
0.016,-0.193,0.939,,,,,
0.012,-0.195,0.975,,,,,
0.031,-0.211,0.979,,,,,
0.029,-0.193,0.979,,,,,
0.031,-0.189,0.949,,,,,
0.006,-0.182,0.955,,,,,
0.025,-0.201,0.979,,,,,
0.027,-0.203,0.971,,,,,
0.031,-0.191,0.969,,,,,
0.014,-0.193,0.945,,,,,
0.014,-0.197,0.977,,,,,
0.029,-0.215,0.969,,,,,
0.029,-0.189,0.975,,,,,
0.031,-0.189,0.949,,,,,
0.004,-0.189,0.969,,,,,
0.021,-0.207,0.98,0,31.9,35.7,16702,2
0.025,-0.199,0.971,,,,,
0.037,-0.189,0.963,,,,,
0.014,-0.191,0.949,,,,,
0.012,-0.199,0.98,,,,,
0.029,-0.211,0.969,,,,,
0.031,-0.191,0.975,,,,,
0.031,-0.189,0.951,,,,,
0.008,-0.195,0.969,,,,,
0.025,-0.207,0.977,,,,,
0.029,-0.193,0.971,,,,,
0.031,-0.191,0.967,,,,,
0.014,-0.191,0.953,,,,,
0.01,-0.199,0.977,,,,,
0.025,-0.207,0.965,,,,,
0.035,-0.193,0.971,,,,,
0.027,-0.199,0.965,,,,,
0,-0.191,0.963,,,,,
0.023,-0.197,0.973,0,31.9,35.7,16878,2
0.027,-0.189,0.979,,,,,
0.037,-0.189,0.961,,,,,
0.012,-0.191,0.945,,,,,
0.016,-0.205,0.982,,,,,
0.027,-0.209,0.971,,,,,
0.027,-0.191,0.969,,,,,
0.033,-0.184,0.945,,,,,
-0.004,-0.184,0.93,,,,,
0.023,-0.209,1.016,,,,,
0.016,-0.203,0.971,,,,,
0.021,-0.193,0.977,,,,,
0,-0.18,0.918,,,,,
-0.002,-0.195,0.988,,,,,
0.004,-0.203,0.967,,,,,
0.025,-0.191,0.98,,,,,
0,-0.188,0.939,,,,,
-0.018,-0.186,0.971,,,,,
0,-0.199,0.992,0,31.9,35.7,17053,2
0.008,-0.184,0.979,,,,,
0.01,-0.172,0.975,,,,,
-0.016,-0.18,0.959,,,,,
-0.016,-0.191,0.98,,,,,
0.004,-0.201,0.975,,,,,
0.002,-0.178,0.969,,,,,
0.006,-0.188,0.951,,,,,
-0.027,-0.189,0.994,,,,,
0,-0.201,0.977,,,,,
0,-0.188,0.977,,,,,
0.008,-0.182,0.965,,,,,
-0.016,-0.184,0.959,,,,,
-0.01,-0.186,0.984,,,,,
0.004,-0.193,0.969,,,,,
0.006,-0.172,0.977,,,,,
-0.004,-0.174,0.951,,,,,
-0.021,-0.172,0.965,,,,,
-0.004,-0.191,0.975,0,31.9,35.7,17229,2
0.01,-0.174,0.977,,,,,
0.008,-0.174,0.959,,,,,
-0.018,-0.176,0.947,,,,,
-0.01,-0.182,0.982,,,,,
0.004,-0.201,0.975,,,,,
0.004,-0.182,0.98,,,,,
0,-0.182,0.945,,,,,
-0.021,-0.178,0.971,,,,,
-0.006,-0.201,0.982,,,,,
0.006,-0.182,0.975,,,,,
0.006,-0.174,0.965,,,,,
-0.012,-0.176,0.951,,,,,
-0.014,-0.186,0.982,,,,,
0.006,-0.193,0.975,,,,,
0.004,-0.176,0.963,,,,,
-0.004,-0.189,0.945,,,,,
-0.014,-0.186,0.975,,,,,
-0.002,-0.197,0.98,0,31.9,35.7,17405,2
0.006,-0.188,0.973,,,,,
0.01,-0.172,0.959,,,,,
-0.012,-0.186,0.951,,,,,
-0.006,-0.188,0.992,,,,,
0,-0.193,0.969,,,,,
0.008,-0.178,0.975,,,,,
-0.004,-0.188,0.945,,,,,
-0.018,-0.182,0.971,,,,,
-0.004,-0.201,0.982,,,,,
0.008,-0.18,0.969,,,,,
0.006,-0.184,0.963,,,,,
-0.018,-0.182,0.957,,,,,
-0.008,-0.186,0.986,,,,,
0.002,-0.195,0.969,,,,,
0.008,-0.174,0.975,,,,,
-0.006,-0.186,0.951,,,,,
-0.021,-0.182,0.977,,,,,
-0.008,-0.205,0.975,0,32,35.6,17587,2
0.008,-0.182,0.977,,,,,
0.006,-0.18,0.963,,,,,
-0.02,-0.182,0.947,,,,,
-0.014,-0.191,0.99,,,,,
0.006,-0.197,0.975,,,,,
0.006,-0.182,0.979,,,,,
-0.002,-0.178,0.949,,,,,
-0.016,-0.182,0.967,,,,,
-0.002,-0.203,0.988,,,,,
0.006,-0.189,0.98,,,,,
0.002,-0.178,0.961,,,,,
-0.016,-0.182,0.941,,,,,
-0.008,-0.184,0.988,,,,,
0.002,-0.193,0.979,,,,,
0.008,-0.178,0.975,,,,,
-0.008,-0.184,0.949,,,,,
-0.018,-0.182,0.971,,,,,
-0.004,-0.203,0.988,0,32,35.6,17756,2
0.004,-0.178,0.965,,,,,
0.008,-0.172,0.959,,,,,
-0.021,-0.18,0.951,,,,,
-0.008,-0.189,0.988,,,,,
0,-0.193,0.975,,,,,
0.006,-0.174,0.971,,,,,
-0.02,-0.176,0.959,,,,,
-0.008,-0.188,0.988,,,,,
0,-0.193,0.969,,,,,
0.004,-0.174,0.975,,,,,
0,-0.186,0.949,,,,,
-0.021,-0.186,0.971,,,,,
-0.004,-0.197,0.979,,,,,
0.008,-0.178,0.969,,,,,
0.004,-0.18,0.963,,,,,
-0.014,-0.18,0.957,,,,,
-0.01,-0.18,0.982,,,,,
-0.002,-0.197,0.975,0,32,35.6,17932,2
0.008,-0.174,0.969,,,,,
-0.008,-0.186,0.953,,,,,
-0.018,-0.182,0.971,,,,,
-0.002,-0.195,0.977,,,,,
0.006,-0.18,0.98,,,,,
0.004,-0.178,0.965,,,,,
-0.014,-0.176,0.963,,,,,
-0.01,-0.189,0.992,,,,,
0.006,-0.193,0.977,,,,,
0.006,-0.178,0.975,,,,,
-0.01,-0.178,0.943,,,,,
-0.016,-0.182,0.971,,,,,
-0.002,-0.203,0.982,,,,,
0.006,-0.178,0.977,,,,,
0,-0.178,0.953,,,,,
-0.02,-0.178,0.959,,,,,
-0.006,-0.191,0.984,,,,,
0.004,-0.195,0.973,0,32,35.6,18108,2
0.008,-0.174,0.963,,,,,
-0.01,-0.18,0.949,,,,,
-0.018,-0.189,0.98,,,,,
-0.004,-0.201,0.98,,,,,
0.004,-0.18,0.967,,,,,
0.002,-0.18,0.957,,,,,
-0.016,-0.174,0.963,,,,,
-0.006,-0.188,0.982,,,,,
-0.004,-0.191,0.975,,,,,
0.006,-0.178,0.959,,,,,
-0.012,-0.186,0.953,,,,,
-0.016,-0.186,0.982,,,,,
-0.004,-0.193,0.975,,,,,
0.004,-0.174,0.973,,,,,
0.002,-0.178,0.959,,,,,
-0.021,-0.18,0.969,,,,,
-0.01,-0.188,0.982,,,,,
0.002,-0.191,0.971,0,32,35.6,18284,2
0.006,-0.178,0.969,,,,,
-0.01,-0.182,0.947,,,,,
-0.016,-0.178,0.977,,,,,
0,-0.195,0.975,,,,,
0.004,-0.174,0.98,,,,,
0,-0.178,0.959,,,,,
-0.02,-0.184,0.957,,,,,
-0.006,-0.191,0.984,,,,,
0.004,-0.191,0.979,,,,,
0.008,-0.178,0.969,,,,,
-0.012,-0.178,0.939,,,,,
-0.02,-0.182,0.977,,,,,
-0.004,-0.199,0.975,,,,,
0.002,-0.18,0.98,,,,,
-0.002,-0.18,0.955,,,,,
-0.021,-0.18,0.957,,,,,
-0.006,-0.191,0.988,,,,,
0,-0.189,0.979,0,32,35.6,18460,2
0.008,-0.176,0.963,,,,,
-0.014,-0.182,0.947,,,,,
-0.018,-0.184,0.988,,,,,
0,-0.199,0.979,,,,,
0.006,-0.176,0.973,,,,,
0.002,-0.172,0.951,,,,,
-0.021,-0.176,0.969,,,,,
-0.01,-0.193,0.984,,,,,
0,-0.191,0.967,,,,,
0,-0.186,0.955,,,,,
-0.01,-0.182,0.951,,,,,
-0.016,-0.188,0.982,,,,,
0,-0.195,0.975,,,,,
0.006,-0.176,0.971,,,,,
0,-0.18,0.957,,,,,
-0.021,-0.182,0.965,,,,,
-0.01,-0.195,0.982,,,,,
-0.002,-0.188,0.977,0,32,35.6,18636,2
0.008,-0.176,0.973,,,,,
-0.012,-0.182,0.951,,,,,
-0.016,-0.184,0.979,,,,,
-0.002,-0.197,0.975,,,,,
0.004,-0.178,0.975,,,,,
0.002,-0.178,0.959,,,,,
-0.023,-0.178,0.967,,,,,
-0.006,-0.191,0.982,,,,,
0.004,-0.188,0.98,,,,,
0.002,-0.178,0.971,,,,,
-0.018,-0.182,0.945,,,,,
-0.014,-0.184,0.986,,,,,
0.002,-0.193,0.977,,,,,
0.002,-0.174,0.982,,,,,
-0.002,-0.178,0.949,,,,,
-0.023,-0.184,0.959,,,,,
-0.008,-0.197,0.986,,,,,
0,-0.184,0.975,0,32,35.6,18812,2
0.006,-0.174,0.961,,,,,
-0.014,-0.178,0.955,,,,,
-0.014,-0.184,0.986,,,,,
0.002,-0.195,0.98,,,,,
0.002,-0.178,0.975,,,,,
-0.004,-0.18,0.949,,,,,
-0.02,-0.178,0.975,,,,,
-0.006,-0.197,0.984,,,,,
0,-0.18,0.969,,,,,
0.004,-0.18,0.963,,,,,
-0.016,-0.18,0.953,,,,,
-0.012,-0.189,0.98,,,,,
0,-0.191,0.969,,,,,
0,-0.176,0.973,,,,,
0,-0.176,0.953,,,,,
-0.021,-0.184,0.971,,,,,
-0.006,-0.195,0.986,,,,,
0.004,-0.184,0.975,0,32,35.6,18988,2
0.002,-0.178,0.965,,,,,
-0.018,-0.18,0.955,,,,,
-0.014,-0.186,0.98,,,,,
-0.004,-0.195,0.969,,,,,
0,-0.176,0.979,,,,,
-0.004,-0.184,0.953,,,,,
-0.021,-0.18,0.971,,,,,
-0.006,-0.197,0.977,,,,,
0,-0.182,0.977,,,,,
-0.002,-0.178,0.967,,,,,
-0.018,-0.174,0.943,,,,,
-0.018,-0.184,0.986,,,,,
0.004,-0.193,0.975,,,,,
-0.002,-0.182,0.973,,,,,
-0.01,-0.18,0.951,,,,,
-0.018,-0.178,0.971,,,,,
-0.004,-0.195,0.982,,,,,
0.002,-0.176,0.975,0,32,35.6,19163,2
0.004,-0.176,0.953,,,,,
-0.021,-0.18,0.945,,,,,
-0.014,-0.188,0.99,,,,,
-0.004,-0.197,0.98,,,,,
0,-0.176,0.977,,,,,
-0.006,-0.174,0.945,,,,,
-0.021,-0.178,0.98,,,,,
-0.004,-0.193,0.98,,,,,
-0.004,-0.184,0.975,,,,,
-0.002,-0.182,0.963,,,,,
-0.018,-0.174,0.953,,,,,
-0.018,-0.188,0.994,,,,,
0.002,-0.191,0.969,,,,,
0.004,-0.176,0.977,,,,,
-0.01,-0.184,0.951,,,,,
-0.02,-0.189,0.975,,,,,
-0.01,-0.199,0.98,,,,,
0.002,-0.178,0.977,0,32,35.6,19339,2
0.004,-0.174,0.963,,,,,
-0.021,-0.18,0.957,,,,,
-0.014,-0.18,0.984,,,,,
-0.004,-0.195,0.973,,,,,
-0.002,-0.176,0.982,,,,,
-0.01,-0.186,0.955,,,,,
-0.021,-0.176,0.975,,,,,
-0.002,-0.199,0.98,,,,,
0.002,-0.172,0.984,,,,,
0.004,-0.182,0.959,,,,,
-0.02,-0.172,0.951,,,,,
-0.016,-0.188,0.988,,,,,
-0.004,-0.189,0.98,,,,,
0.004,-0.176,0.975,,,,,
-0.012,-0.178,0.949,,,,,
-0.021,-0.18,0.969,,,,,
-0.008,-0.199,0.988,,,,,
0.002,-0.182,0.975,0,32,35.6,19515,2
0.008,-0.174,0.963,,,,,
-0.023,-0.176,0.953,,,,,
-0.016,-0.188,0.99,,,,,
-0.004,-0.195,0.977,,,,,
0.004,-0.174,0.965,,,,,
-0.01,-0.176,0.943,,,,,
-0.018,-0.182,0.98,,,,,
-0.006,-0.201,0.977,,,,,
-0.002,-0.182,0.982,,,,,
-0.004,-0.178,0.953,,,,,
-0.018,-0.178,0.957,,,,,
-0.01,-0.189,0.992,,,,,
0,-0.189,0.965,,,,,
0,-0.174,0.977,,,,,
-0.01,-0.178,0.953,,,,,
-0.021,-0.186,0.973,,,,,
-0.006,-0.195,0.984,,,,,
0.002,-0.174,0.973,0,32,36.9,19691,2
0.002,-0.18,0.957,,,,,
-0.025,-0.184,0.959,,,,,
-0.012,-0.189,0.977,,,,,
-0.004,-0.189,0.977,,,,,
0,-0.172,0.977,,,,,
-0.012,-0.178,0.951,,,,,
-0.025,-0.178,0.979,,,,,
-0.004,-0.195,0.973,,,,,
0,-0.186,0.982,,,,,
0,-0.186,0.961,,,,,
-0.018,-0.176,0.945,,,,,
-0.012,-0.189,0.986,,,,,
0.004,-0.184,0.977,,,,,
-0.004,-0.18,0.975,,,,,
-0.01,-0.176,0.947,,,,,
-0.021,-0.182,0.975,,,,,
-0.008,-0.195,0.984,,,,,
0.004,-0.178,0.965,0,32,36.9,19867,2
-0.002,-0.178,0.959,,,,,
-0.023,-0.178,0.953,,,,,
-0.01,-0.191,0.986,,,,,
-0.002,-0.191,0.977,,,,,
0.002,-0.174,0.967,,,,,
-0.012,-0.176,0.947,,,,,
-0.021,-0.178,0.982,,,,,
-0.004,-0.199,0.98,,,,,
-0.002,-0.176,0.977,,,,,
-0.004,-0.182,0.959,,,,,
-0.02,-0.18,0.963,,,,,
-0.014,-0.193,0.986,,,,,
-0.002,-0.174,0.969,,,,,
0,-0.174,0.957,,,,,
-0.021,-0.18,0.967,,,,,
-0.012,-0.189,0.992,,,,,
-0.002,-0.191,0.971,,,,,
0.002,-0.176,0.967,0,32,36.9,20043,2
-0.01,-0.178,0.947,,,,,
-0.02,-0.178,0.982,,,,,
-0.004,-0.195,0.977,,,,,
-0.002,-0.176,0.973,,,,,
0.002,-0.178,0.965,,,,,
-0.021,-0.18,0.965,,,,,
-0.014,-0.191,0.977,,,,,
-0.002,-0.186,0.969,,,,,
0.006,-0.176,0.969,,,,,
-0.012,-0.178,0.951,,,,,
-0.02,-0.178,0.973,,,,,
-0.002,-0.197,0.975,,,,,
0,-0.186,0.982,,,,,
-0.002,-0.182,0.961,,,,,
-0.021,-0.176,0.963,,,,,
-0.01,-0.188,0.99,,,,,
0,-0.182,0.979,,,,,
0.004,-0.174,0.969,0,32,36.9,20219,2
-0.016,-0.182,0.947,,,,,
-0.021,-0.184,0.979,,,,,
-0.006,-0.203,0.979,,,,,
0,-0.176,0.975,,,,,
-0.002,-0.17,0.949,,,,,
-0.023,-0.18,0.965,,,,,
-0.012,-0.191,0.98,,,,,
0,-0.189,0.98,,,,,
0,-0.176,0.973,,,,,
-0.018,-0.174,0.943,,,,,
-0.02,-0.184,0.992,,,,,
0,-0.193,0.975,,,,,
-0.004,-0.178,0.971,,,,,
-0.004,-0.18,0.947,,,,,
-0.021,-0.178,0.967,,,,,
-0.008,-0.193,0.984,,,,,
-0.002,-0.182,0.965,,,,,
0,-0.166,0.965,0,32,36.9,20395,2
-0.016,-0.178,0.953,,,,,
-0.018,-0.182,0.982,,,,,
-0.006,-0.199,0.963,,,,,
-0.002,-0.18,0.975,,,,,
0,-0.178,0.957,,,,,
-0.025,-0.178,0.971,,,,,
-0.006,-0.188,0.98,,,,,
0.002,-0.176,0.975,,,,,
0.002,-0.18,0.969,,,,,
-0.016,-0.178,0.949,,,,,
-0.021,-0.182,0.977,,,,,
-0.006,-0.193,0.973,,,,,
0.004,-0.18,0.979,,,,,
-0.002,-0.18,0.953,,,,,
-0.025,-0.18,0.965,,,,,
-0.008,-0.193,0.98,,,,,
0,-0.186,0.98,,,,,
0.004,-0.178,0.971,0,32,36.9,20570,2
-0.016,-0.174,0.947,,,,,
-0.02,-0.178,0.988,,,,,
-0.004,-0.193,0.975,,,,,
-0.002,-0.178,0.973,,,,,
-0.004,-0.18,0.951,,,,,
-0.023,-0.178,0.959,,,,,
-0.004,-0.191,0.986,,,,,
-0.002,-0.184,0.975,,,,,
0.002,-0.178,0.963,,,,,
-0.014,-0.176,0.951,,,,,
-0.018,-0.182,0.986,,,,,
-0.004,-0.193,0.979,,,,,
0.006,-0.176,0.971,,,,,
-0.002,-0.182,0.953,,,,,
-0.027,-0.176,0.971,,,,,
-0.006,-0.193,0.986,,,,,
-0.004,-0.182,0.973,,,,,
0.006,-0.174,0.957,0,32,36.9,20746,2
-0.014,-0.176,0.955,,,,,
-0.012,-0.18,0.979,,,,,
-0.006,-0.195,0.971,,,,,
0,-0.172,0.975,,,,,
0.002,-0.176,0.959,,,,,
-0.025,-0.176,0.971,,,,,
-0.01,-0.193,0.973,,,,,
-0.004,-0.184,0.975,,,,,
0.002,-0.182,0.969,,,,,
-0.014,-0.178,0.951,,,,,
-0.018,-0.18,0.984,,,,,
-0.002,-0.197,0.971,,,,,
0,-0.174,0.975,,,,,
-0.004,-0.178,0.959,,,,,
-0.025,-0.182,0.967,,,,,
-0.004,-0.195,0.98,,,,,
0.002,-0.188,0.98,,,,,
0.004,-0.176,0.969,0,32,36.9,20922,2
-0.016,-0.176,0.945,,,,,
-0.016,-0.178,0.986,,,,,
0.002,-0.195,0.977,,,,,
0,-0.176,0.982,,,,,
-0.006,-0.172,0.947,,,,,
-0.025,-0.178,0.965,,,,,
-0.008,-0.193,0.99,,,,,
0,-0.186,0.973,,,,,
-0.002,-0.176,0.971,,,,,
-0.021,-0.178,0.949,,,,,
-0.021,-0.184,0.99,,,,,
0,-0.195,0.98,,,,,
-0.002,-0.172,0.973,,,,,
-0.008,-0.18,0.957,,,,,
-0.023,-0.178,0.971,,,,,
-0.006,-0.195,0.99,,,,,
0,-0.18,0.971,,,,,
0.004,-0.182,0.963,0,32,36.9,21098,2
-0.021,-0.18,0.953,,,,,
-0.016,-0.186,0.984,,,,,
-0.004,-0.193,0.973,,,,,
0,-0.174,0.98,,,,,
-0.002,-0.176,0.947,,,,,
-0.023,-0.182,0.975,,,,,
-0.006,-0.193,0.977,,,,,
-0.002,-0.186,0.969,,,,,
0,-0.178,0.979,,,,,
-0.014,-0.176,0.953,,,,,
-0.02,-0.178,0.982,,,,,
-0.004,-0.186,0.977,,,,,
0.008,-0.176,0.973,,,,,
-0.01,-0.174,0.965,,,,,
-0.023,-0.182,0.969,,,,,
-0.008,-0.195,0.98,,,,,
0.002,-0.182,0.975,,,,,
0.004,-0.174,0.969,0,32,36.9,21274,2
-0.021,-0.176,0.949,,,,,
-0.014,-0.182,0.982,,,,,
-0.004,-0.197,0.973,,,,,
0,-0.176,0.975,,,,,
-0.01,-0.18,0.943,,,,,
-0.02,-0.176,0.971,,,,,
-0.004,-0.193,0.984,,,,,
0.002,-0.18,0.977,,,,,
-0.004,-0.184,0.959,,,,,
-0.023,-0.174,0.957,,,,,
-0.016,-0.186,0.992,,,,,
0,-0.195,0.977,,,,,
0.002,-0.172,0.969,,,,,
-0.008,-0.182,0.943,,,,,
-0.023,-0.18,0.98,,,,,
-0.006,-0.201,0.988,,,,,
-0.002,-0.178,0.967,,,,,
-0.004,-0.176,0.965,0,32,36.9,21450,2
-0.021,-0.176,0.953,,,,,
-0.014,-0.188,0.984,,,,,
-0.004,-0.191,0.973,,,,,
0.002,-0.174,0.971,,,,,
-0.008,-0.176,0.957,,,,,
-0.021,-0.182,0.98,,,,,
-0.004,-0.197,0.969,,,,,
0,-0.18,0.975,,,,,
-0.002,-0.178,0.955,,,,,
-0.025,-0.178,0.963,,,,,
-0.016,-0.188,0.988,,,,,
-0.002,-0.191,0.967,,,,,
0.002,-0.176,0.973,,,,,
-0.01,-0.178,0.953,,,,,
-0.021,-0.18,0.977,,,,,
-0.002,-0.197,0.977,,,,,
0.004,-0.176,0.977,,,,,
0,-0.182,0.957,372,32,39.3,21626,2
-0.021,-0.178,0.951,,,,,
-0.014,-0.189,0.982,,,,,
-0.004,-0.189,0.975,,,,,
0,-0.176,0.979,,,,,
-0.01,-0.174,0.947,,,,,
-0.021,-0.178,0.98,,,,,
-0.004,-0.195,0.982,,,,,
0.002,-0.178,0.977,,,,,
-0.004,-0.178,0.957,,,,,
-0.021,-0.178,0.951,,,,,
-0.01,-0.191,0.988,,,,,
0.004,-0.191,0.971,,,,,
0.002,-0.174,0.965,,,,,
-0.014,-0.182,0.951,,,,,
-0.018,-0.186,0.98,,,,,
-0.006,-0.201,0.982,,,,,
0,-0.17,0.973,,,,,
-0.002,-0.174,0.953,372,32,39.3,21802,2
-0.021,-0.174,0.971,,,,,
-0.014,-0.197,0.982,,,,,
-0.002,-0.186,0.969,,,,,
0,-0.174,0.965,,,,,
-0.016,-0.178,0.951,,,,,
-0.02,-0.182,0.982,,,,,
0,-0.191,0.975,,,,,
0,-0.174,0.977,,,,,
-0.004,-0.178,0.961,,,,,
-0.02,-0.178,0.969,,,,,
-0.01,-0.186,0.98,,,,,
-0.002,-0.188,0.965,,,,,
0.002,-0.178,0.971,,,,,
-0.016,-0.182,0.951,,,,,
-0.02,-0.182,0.98,,,,,
-0.004,-0.199,0.971,,,,,
0.002,-0.176,0.979,,,,,
0,-0.18,0.955,372,32,39.3,21977,2
-0.023,-0.178,0.961,,,,,
-0.012,-0.189,0.984,,,,,
-0.002,-0.178,0.977,,,,,
0.008,-0.178,0.961,,,,,
-0.025,-0.172,0.963,,,,,
-0.01,-0.191,0.984,,,,,
0,-0.186,0.977,,,,,
0,-0.174,0.965,,,,,
-0.018,-0.176,0.945,,,,,
-0.018,-0.188,0.982,,,,,
0,-0.197,0.979,,,,,
0.006,-0.174,0.975,,,,,
-0.006,-0.176,0.953,,,,,
-0.025,-0.182,0.965,,,,,
-0.008,-0.195,0.986,,,,,
0,-0.186,0.977,,,,,
0.004,-0.172,0.961,,,,,
-0.018,-0.178,0.945,372,32,39.3,22153,2
-0.018,-0.184,0.992,,,,,
0,-0.197,0.975,,,,,
0,-0.176,0.975,,,,,
-0.008,-0.18,0.955,,,,,
-0.027,-0.174,0.969,,,,,
-0.006,-0.191,0.986,,,,,
-0.002,-0.184,0.965,,,,,
0.004,-0.182,0.965,,,,,
-0.02,-0.18,0.957,,,,,
-0.016,-0.184,0.984,,,,,
0.002,-0.191,0.969,,,,,
0,-0.172,0.975,,,,,
-0.004,-0.178,0.957,,,,,
-0.025,-0.18,0.971,,,,,
-0.008,-0.199,0.982,,,,,
0.002,-0.182,0.979,,,,,
0.006,-0.178,0.965,,,,,
-0.018,-0.174,0.953,372,32,39.3,22329,2
-0.016,-0.184,0.982,,,,,
-0.002,-0.195,0.977,,,,,
0,-0.18,0.982,,,,,
-0.004,-0.178,0.953,,,,,
-0.025,-0.18,0.965,,,,,
-0.012,-0.193,0.982,,,,,
0,-0.186,0.975,,,,,
-0.002,-0.178,0.971,,,,,
-0.021,-0.174,0.947,,,,,
-0.016,-0.18,0.982,,,,,
0,-0.195,0.979,,,,,
0.004,-0.176,0.979,,,,,
-0.008,-0.18,0.945,,,,,
-0.025,-0.176,0.965,,,,,
-0.006,-0.195,0.982,,,,,
-0.002,-0.18,0.973,,,,,
0,-0.176,0.961,,,,,
-0.023,-0.18,0.947,372,32,39.3,22505,2
-0.016,-0.188,0.988,,,,,
0.004,-0.197,0.975,,,,,
-0.002,-0.172,0.969,,,,,
-0.008,-0.172,0.947,,,,,
-0.023,-0.18,0.975,,,,,
-0.004,-0.195,0.986,,,,,
-0.008,-0.186,0.967,,,,,
-0.004,-0.186,0.965,,,,,
-0.02,-0.178,0.955,,,,,
-0.02,-0.184,0.988,,,,,
-0.002,-0.191,0.965,,,,,
0,-0.172,0.973,,,,,
-0.006,-0.182,0.957,,,,,
-0.025,-0.184,0.971,,,,,
-0.008,-0.195,0.975,,,,,
0,-0.182,0.971,,,,,
0.004,-0.174,0.961,,,,,
-0.018,-0.178,0.953,372,32,39.3,22681,2
-0.02,-0.18,0.98,,,,,
0,-0.199,0.977,,,,,
0.002,-0.178,0.977,,,,,
-0.01,-0.182,0.951,,,,,
-0.021,-0.178,0.973,,,,,
-0.006,-0.191,0.979,,,,,
0,-0.178,0.982,,,,,
-0.002,-0.174,0.957,,,,,
-0.025,-0.174,0.955,,,,,
-0.02,-0.186,0.988,,,,,
-0.002,-0.193,0.975,,,,,
0,-0.176,0.971,,,,,
-0.014,-0.188,0.951,,,,,
-0.023,-0.182,0.967,,,,,
-0.004,-0.195,0.984,,,,,
0.004,-0.172,0.973,,,,,
-0.004,-0.172,0.953,,,,,
-0.021,-0.182,0.957,372,32,39.3,22857,2
-0.014,-0.191,0.986,,,,,
-0.002,-0.189,0.979,,,,,
0,-0.174,0.969,,,,,
-0.014,-0.18,0.941,,,,,
-0.02,-0.18,0.986,,,,,
-0.004,-0.197,0.979,,,,,
-0.002,-0.176,0.973,,,,,
-0.008,-0.182,0.955,,,,,
-0.02,-0.176,0.969,,,,,
-0.014,-0.191,0.988,,,,,
0,-0.186,0.963,,,,,
-0.004,-0.176,0.971,,,,,
-0.016,-0.178,0.957,,,,,
-0.018,-0.186,0.98,,,,,
-0.004,-0.191,0.975,,,,,
0,-0.176,0.975,,,,,
-0.002,-0.178,0.959,,,,,
-0.021,-0.176,0.969,372,32,39.3,23033,2
-0.014,-0.193,0.973,,,,,
0,-0.186,0.975,,,,,
0,-0.18,0.975,,,,,
-0.018,-0.18,0.949,,,,,
-0.021,-0.186,0.977,,,,,
-0.002,-0.195,0.971,,,,,
0.002,-0.18,0.982,,,,,
-0.004,-0.178,0.955,,,,,
-0.021,-0.174,0.961,,,,,
-0.012,-0.193,0.99,,,,,
0.002,-0.184,0.975,,,,,
0,-0.178,0.977,,,,,
-0.02,-0.178,0.945,,,,,
-0.02,-0.186,0.982,,,,,
-0.004,-0.193,0.975,,,,,
0.002,-0.172,0.963,,,,,
-0.004,-0.174,0.951,,,,,
-0.025,-0.18,0.961,372,32,39.3,23209,2
-0.01,-0.195,0.98,,,,,
-0.002,-0.191,0.973,,,,,
0,-0.172,0.959,,,,,
-0.02,-0.178,0.947,,,,,
-0.018,-0.182,0.986,,,,,
0.002,-0.195,0.975,,,,,
0.004,-0.176,0.973,,,,,
-0.006,-0.182,0.949,,,,,
-0.021,-0.174,0.977,,,,,
-0.004,-0.191,0.982,,,,,
0,-0.18,0.967,,,,,
-0.004,-0.18,0.969,,,,,
-0.018,-0.184,0.951,,,,,
-0.016,-0.186,0.988,,,,,
-0.002,-0.197,0.971,,,,,
0.002,-0.172,0.969,,,,,
-0.006,-0.178,0.959,,,,,
-0.021,-0.18,0.963,372,32,39.3,23385,2
-0.01,-0.193,0.977,,,,,
0,-0.18,0.975,,,,,
0.004,-0.174,0.969,,,,,
-0.02,-0.178,0.957,,,,,
-0.018,-0.182,0.979,,,,,
-0.004,-0.195,0.98,,,,,
-0.002,-0.176,0.979,,,,,
-0.006,-0.184,0.953,,,,,
-0.023,-0.182,0.967,,,,,
-0.01,-0.191,0.98,,,,,
0.004,-0.18,0.98,,,,,
-0.002,-0.176,0.965,,,,,
-0.021,-0.18,0.947,,,,,
-0.02,-0.188,0.982,,,,,
-0.004,-0.195,0.98,,,,,
0.002,-0.174,0.969,,,,,
-0.008,-0.178,0.947,,,,,
-0.025,-0.176,0.971,678,32,42.7,23561,2
-0.01,-0.195,0.98,,,,,
0,-0.184,0.982,,,,,
0,-0.176,0.957,,,,,
-0.02,-0.178,0.951,,,,,
-0.014,-0.186,0.984,,,,,
-0.004,-0.195,0.977,,,,,
0,-0.178,0.971,,,,,
-0.012,-0.18,0.945,,,,,
-0.021,-0.178,0.977,,,,,
-0.008,-0.195,0.982,,,,,
0,-0.178,0.969,,,,,
-0.002,-0.178,0.963,,,,,
-0.018,-0.18,0.955,,,,,
-0.018,-0.191,0.996,,,,,
-0.004,-0.193,0.971,,,,,
-0.002,-0.174,0.975,,,,,
-0.01,-0.176,0.951,,,,,
-0.023,-0.182,0.975,678,32,42.7,23737,2
-0.008,-0.197,0.98,,,,,
0,-0.18,0.971,,,,,
0.006,-0.178,0.975,,,,,
-0.021,-0.18,0.957,,,,,
-0.016,-0.182,0.98,,,,,
-0.004,-0.199,0.971,,,,,
0.002,-0.172,0.977,,,,,
-0.008,-0.186,0.951,,,,,
-0.023,-0.174,0.971,,,,,
0.002,-0.191,0.975,,,,,
0,-0.174,0.98,,,,,
-0.008,-0.18,0.949,,,,,
-0.023,-0.178,0.971,,,,,
-0.006,-0.193,0.977,,,,,
0.002,-0.176,0.979,,,,,
0,-0.172,0.963,,,,,
-0.021,-0.182,0.957,,,,,
-0.018,-0.193,0.988,678,32,42.7,23913,2
0.002,-0.195,0.98,,,,,
-0.002,-0.176,0.971,,,,,
-0.01,-0.176,0.947,,,,,
-0.02,-0.178,0.98,,,,,
-0.004,-0.197,0.984,,,,,
0.002,-0.182,0.98,,,,,
-0.004,-0.18,0.957,,,,,
-0.021,-0.174,0.957,,,,,
-0.014,-0.191,0.99,,,,,
-0.002,-0.186,0.965,,,,,
-0.002,-0.178,0.969,,,,,
-0.01,-0.178,0.949,,,,,
-0.02,-0.186,0.986,,,,,
-0.002,-0.195,0.975,,,,,
-0.002,-0.178,0.971,,,,,
0,-0.176,0.955,,,,,
-0.027,-0.18,0.967,,,,,
-0.012,-0.186,0.988,678,32,42.7,24088,2
0,-0.186,0.965,,,,,
0,-0.178,0.975,,,,,
-0.012,-0.184,0.951,,,,,
-0.02,-0.182,0.975,,,,,
-0.002,-0.197,0.973,,,,,
0.002,-0.176,0.979,,,,,
-0.002,-0.182,0.957,,,,,
-0.021,-0.178,0.961,,,,,
-0.016,-0.189,0.986,,,,,
0,-0.191,0.967,,,,,
-0.002,-0.174,0.977,,,,,
-0.014,-0.18,0.951,,,,,
-0.02,-0.178,0.973,,,,,
-0.006,-0.197,0.98,,,,,
0.002,-0.178,0.982,,,,,
-0.004,-0.174,0.959,,,,,
-0.021,-0.176,0.957,,,,,
-0.01,-0.195,0.982,678,32,42.7,24264,2
0,-0.189,0.973,,,,,
0,-0.174,0.971,,,,,
-0.018,-0.178,0.941,,,,,
-0.018,-0.18,0.982,,,,,
-0.004,-0.199,0.982,,,,,
-0.002,-0.176,0.975,,,,,
-0.008,-0.178,0.953,,,,,
-0.021,-0.174,0.969,,,,,
-0.01,-0.189,0.986,,,,,
0.002,-0.184,0.969,,,,,
0,-0.176,0.963,,,,,
-0.018,-0.18,0.951,,,,,
-0.02,-0.186,0.986,,,,,
-0.002,-0.195,0.975,,,,,
0,-0.176,0.971,,,,,
-0.006,-0.176,0.949,,,,,
-0.023,-0.176,0.969,,,,,
-0.01,-0.195,0.98,678,32,42.7,24440,2
0,-0.186,0.969,,,,,
0,-0.176,0.971,,,,,
-0.016,-0.178,0.949,,,,,
-0.018,-0.182,0.984,,,,,
-0.004,-0.193,0.977,,,,,
0,-0.176,0.975,,,,,
-0.006,-0.184,0.957,,,,,
-0.023,-0.172,0.965,,,,,
-0.01,-0.191,0.984,,,,,
0,-0.186,0.977,,,,,
-0.004,-0.178,0.971,,,,,
-0.018,-0.178,0.953,,,,,
-0.02,-0.184,0.98,,,,,
-0.002,-0.195,0.973,,,,,
0.002,-0.174,0.975,,,,,
-0.006,-0.178,0.951,,,,,
-0.021,-0.18,0.963,,,,,
-0.01,-0.199,0.982,678,32,42.7,24616,2
0,-0.184,0.973,,,,,
-0.002,-0.174,0.965,,,,,
-0.02,-0.176,0.943,,,,,
-0.016,-0.182,0.986,,,,,
0.002,-0.197,0.977,,,,,
-0.004,-0.172,0.971,,,,,
-0.01,-0.184,0.941,,,,,
-0.025,-0.176,0.971,,,,,
-0.01,-0.191,0.986,,,,,
0.002,-0.176,0.971,,,,,
0.002,-0.174,0.965,,,,,
-0.02,-0.172,0.959,,,,,
-0.018,-0.186,0.986,,,,,
-0.002,-0.197,0.98,,,,,
0.002,-0.168,0.965,,,,,
-0.01,-0.178,0.951,,,,,
-0.025,-0.178,0.969,,,,,
-0.01,-0.199,0.98,678,32,42.7,24792,2
0,-0.178,0.969,,,,,
0,-0.174,0.959,,,,,
-0.02,-0.174,0.957,,,,,
-0.014,-0.186,0.988,,,,,
-0.002,-0.191,0.967,,,,,
-0.004,-0.182,0.977,,,,,
-0.01,-0.182,0.951,,,,,
-0.023,-0.178,0.975,,,,,
-0.008,-0.189,0.982,,,,,
0.002,-0.182,0.973,,,,,
-0.004,-0.174,0.969,,,,,
-0.021,-0.176,0.955,,,,,
-0.014,-0.184,0.98,,,,,
0,-0.193,0.971,,,,,
0.002,-0.17,0.971,,,,,
-0.012,-0.182,0.953,,,,,
-0.027,-0.18,0.963,,,,,
-0.006,-0.195,0.975,678,32,42.7,24968,2
-0.002,-0.178,0.971,,,,,
-0.002,-0.172,0.959,,,,,
-0.023,-0.172,0.949,,,,,
-0.012,-0.186,0.98,,,,,
0.002,-0.191,0.98,,,,,
0.002,-0.178,0.973,,,,,
-0.01,-0.176,0.939,,,,,
-0.025,-0.178,0.973,,,,,
-0.006,-0.193,0.98,,,,,
-0.002,-0.178,0.975,,,,,
-0.004,-0.172,0.961,,,,,
-0.027,-0.176,0.957,,,,,
-0.012,-0.184,0.996,,,,,
0,-0.191,0.975,,,,,
0,-0.166,0.963,,,,,
-0.014,-0.178,0.949,,,,,
-0.025,-0.182,0.98,,,,,
-0.004,-0.193,0.979,678,32,42.7,25144,2
0,-0.18,0.975,,,,,
0.002,-0.172,0.959,,,,,
-0.021,-0.178,0.965,,,,,
-0.008,-0.184,0.986,,,,,
0,-0.188,0.967,,,,,
-0.004,-0.176,0.973,,,,,
-0.014,-0.18,0.939,,,,,
-0.021,-0.18,0.975,,,,,
0,-0.191,0.975,,,,,
0,-0.176,0.967,,,,,
-0.002,-0.178,0.965,,,,,
-0.025,-0.18,0.963,,,,,
-0.01,-0.186,0.982,,,,,
-0.002,-0.188,0.977,,,,,
0.004,-0.174,0.967,,,,,
-0.014,-0.18,0.949,,,,,
-0.023,-0.178,0.982,,,,,
-0.006,-0.195,0.979,678,32,42.7,25320,2
-0.004,-0.178,0.977,,,,,
0,-0.176,0.959,,,,,
-0.027,-0.176,0.957,,,,,
-0.012,-0.189,0.982,,,,,
0,-0.188,0.971,,,,,
0,-0.172,0.98,,,,,
-0.014,-0.176,0.947,,,,,
-0.02,-0.182,0.98,,,,,
-0.002,-0.178,0.975,,,,,
-0.008,-0.174,0.953,,,,,
-0.027,-0.176,0.965,,,,,
-0.008,-0.189,0.992,,,,,
-0.002,-0.184,0.973,,,,,
0.004,-0.174,0.959,,,,,
-0.02,-0.18,0.951,,,,,
-0.02,-0.186,0.986,,,,,
0,-0.195,0.975,,,,,
-0.004,-0.17,0.967,698,32.1,44.5,25502,2
-0.002,-0.172,0.949,,,,,
-0.023,-0.178,0.973,,,,,
-0.008,-0.189,0.975,,,,,
0,-0.186,0.973,,,,,
-0.002,-0.176,0.959,,,,,
-0.016,-0.178,0.949,,,,,
-0.016,-0.184,0.99,,,,,
0.002,-0.191,0.965,,,,,
0,-0.176,0.977,,,,,
-0.008,-0.18,0.951,,,,,
-0.023,-0.184,0.969,,,,,
-0.008,-0.189,0.98,,,,,
-0.004,-0.182,0.967,,,,,
0,-0.172,0.967,,,,,
-0.02,-0.176,0.953,,,,,
-0.018,-0.184,0.98,,,,,
-0.002,-0.191,0.973,,,,,
-0.002,-0.178,0.979,698,32.1,44.5,25678,2
-0.008,-0.176,0.957,,,,,
-0.025,-0.178,0.965,,,,,
-0.008,-0.193,0.979,,,,,
0,-0.18,0.979,,,,,
0,-0.174,0.963,,,,,
-0.021,-0.178,0.947,,,,,
-0.016,-0.188,0.982,,,,,
0,-0.191,0.98,,,,,
0,-0.172,0.98,,,,,
-0.01,-0.174,0.943,,,,,
-0.023,-0.178,0.977,,,,,
-0.006,-0.195,0.988,,,,,
0,-0.182,0.975,,,,,
0,-0.178,0.957,,,,,
-0.025,-0.178,0.947,,,,,
-0.016,-0.191,0.994,,,,,
0.004,-0.188,0.971,,,,,
-0.004,-0.174,0.969,698,32.1,44.5,25854,2
-0.006,-0.174,0.951,,,,,
-0.025,-0.182,0.982,,,,,
-0.004,-0.199,0.982,,,,,
-0.004,-0.176,0.971,,,,,
-0.004,-0.18,0.963,,,,,
-0.02,-0.176,0.951,,,,,
-0.018,-0.189,0.988,,,,,
0.004,-0.186,0.969,,,,,
0,-0.172,0.965,,,,,
-0.01,-0.18,0.957,,,,,
-0.025,-0.178,0.975,,,,,
-0.006,-0.193,0.973,,,,,
-0.002,-0.178,0.973,,,,,
0,-0.18,0.957,,,,,
-0.025,-0.176,0.951,,,,,
-0.014,-0.189,0.979,,,,,
-0.002,-0.189,0.969,,,,,
0,-0.178,0.977,698,32.1,44.5,26029,2
-0.008,-0.172,0.947,,,,,
-0.023,-0.178,0.982,,,,,
-0.004,-0.195,0.977,,,,,
0.002,-0.176,0.975,,,,,
-0.004,-0.18,0.965,,,,,
-0.023,-0.174,0.951,,,,,
-0.014,-0.189,0.984,,,,,
0.002,-0.188,0.979,,,,,
-0.002,-0.176,0.975,,,,,
-0.012,-0.184,0.951,,,,,
-0.023,-0.176,0.98,,,,,
-0.004,-0.195,0.982,,,,,
0,-0.174,0.971,,,,,
-0.004,-0.174,0.953,,,,,
-0.025,-0.176,0.951,,,,,
-0.016,-0.195,0.988,,,,,
-0.002,-0.186,0.973,,,,,
0,-0.174,0.965,698,32.1,44.5,26205,2
-0.012,-0.174,0.947,,,,,
-0.018,-0.178,0.988,,,,,
-0.002,-0.197,0.982,,,,,
0,-0.176,0.977,,,,,
-0.004,-0.178,0.949,,,,,
-0.023,-0.174,0.959,,,,,
-0.012,-0.193,0.992,,,,,
0,-0.178,0.963,,,,,
0.004,-0.176,0.969,,,,,
-0.012,-0.176,0.953,,,,,
-0.021,-0.182,0.984,,,,,
-0.002,-0.195,0.975,,,,,
0,-0.172,0.967,,,,,
0,-0.18,0.955,,,,,
-0.027,-0.174,0.965,,,,,
-0.012,-0.189,0.98,,,,,
-0.004,-0.184,0.971,,,,,
0.002,-0.174,0.973,698,32.1,44.5,26381,2
-0.016,-0.178,0.941,,,,,
-0.021,-0.182,0.988,,,,,
0,-0.193,0.971,,,,,
-0.002,-0.176,0.988,,,,,
0,-0.182,0.955,,,,,
-0.023,-0.172,0.957,,,,,
-0.01,-0.193,0.988,,,,,
0,-0.184,0.971,,,,,
0,-0.178,0.967,,,,,
-0.016,-0.178,0.953,,,,,
-0.018,-0.18,0.979,,,,,
0.002,-0.193,0.982,,,,,
0.004,-0.168,0.969,,,,,
-0.004,-0.178,0.951,,,,,
-0.023,-0.178,0.965,,,,,
-0.01,-0.195,0.982,,,,,
0,-0.184,0.969,,,,,
0.002,-0.172,0.963,698,32.1,44.5,26557,2
-0.014,-0.178,0.951,,,,,
-0.016,-0.182,0.988,,,,,
0,-0.193,0.975,,,,,
-0.004,-0.182,0.977,,,,,
-0.008,-0.18,0.949,,,,,
-0.023,-0.172,0.975,,,,,
-0.008,-0.188,0.986,,,,,
-0.006,-0.174,0.965,,,,,
-0.002,-0.176,0.965,,,,,
-0.021,-0.182,0.953,,,,,
-0.018,-0.186,0.982,,,,,
-0.002,-0.193,0.973,,,,,
0,-0.166,0.963,,,,,
-0.004,-0.174,0.957,,,,,
-0.021,-0.18,0.971,,,,,
-0.012,-0.191,0.975,,,,,
-0.002,-0.182,0.975,,,,,
0,-0.18,0.975,698,32.1,44.5,26733,2
-0.018,-0.178,0.959,,,,,
-0.016,-0.18,0.98,,,,,
-0.002,-0.188,0.969,,,,,
0,-0.176,0.979,,,,,
-0.008,-0.186,0.947,,,,,
-0.023,-0.176,0.965,,,,,
-0.008,-0.195,0.982,,,,,
0.002,-0.182,0.975,,,,,
-0.002,-0.176,0.969,,,,,
-0.02,-0.178,0.951,,,,,
-0.016,-0.188,0.986,,,,,
0.002,-0.197,0.977,,,,,
0,-0.176,0.971,,,,,
-0.01,-0.182,0.947,,,,,
-0.023,-0.174,0.969,,,,,
-0.006,-0.193,0.982,,,,,
0,-0.178,0.98,,,,,
-0.002,-0.17,0.957,698,32.1,44.5,26908,2
-0.023,-0.172,0.947,,,,,
-0.012,-0.186,0.986,,,,,
0,-0.201,0.973,,,,,
-0.004,-0.178,0.975,,,,,
-0.008,-0.18,0.945,,,,,
-0.025,-0.176,0.982,,,,,
-0.002,-0.191,0.982,,,,,
0,-0.182,0.973,,,,,
0.002,-0.176,0.959,,,,,
-0.02,-0.176,0.963,,,,,
-0.014,-0.193,0.992,,,,,
-0.002,-0.188,0.967,,,,,
0,-0.172,0.971,,,,,
-0.01,-0.18,0.953,,,,,
-0.025,-0.182,0.969,,,,,
-0.008,-0.201,0.973,,,,,
0,-0.176,0.977,,,,,
0.006,-0.17,0.963,698,32.1,44.5,27084,2
-0.023,-0.176,0.963,,,,,
-0.016,-0.186,0.98,,,,,
-0.004,-0.191,0.969,,,,,
-0.002,-0.174,0.979,,,,,
-0.014,-0.18,0.949,,,,,
-0.025,-0.176,0.971,,,,,
-0.004,-0.195,0.979,,,,,
0,-0.174,0.982,,,,,
-0.004,-0.178,0.961,,,,,
-0.023,-0.178,0.953,,,,,
-0.012,-0.191,0.988,,,,,
0,-0.191,0.979,,,,,
0,-0.174,0.973,,,,,
-0.014,-0.178,0.947,,,,,
-0.021,-0.178,0.977,,,,,
-0.004,-0.193,0.986,,,,,
0,-0.178,0.977,,,,,
-0.002,-0.17,0.961,698,32.1,44.5,27260,2
-0.025,-0.174,0.953,,,,,
-0.014,-0.186,0.99,,,,,
-0.002,-0.189,0.975,,,,,
-0.002,-0.176,0.967,,,,,
-0.014,-0.182,0.943,,,,,
-0.025,-0.18,0.973,,,,,
-0.002,-0.193,0.975,,,,,
-0.002,-0.178,0.973,,,,,
-0.002,-0.174,0.953,,,,,
-0.023,-0.176,0.969,,,,,
-0.021,-0.18,0.988,,,,,
-0.004,-0.197,0.975,,,,,
-0.004,-0.178,0.973,,,,,
-0.002,-0.176,0.961,,,,,
-0.023,-0.178,0.971,,,,,
-0.008,-0.186,0.982,,,,,
0.004,-0.186,0.977,,,,,
-0.004,-0.178,0.977,742,32.1,44.9,27475,2
-0.014,-0.18,0.949,,,,,
-0.021,-0.18,0.98,,,,,
0,-0.195,0.971,,,,,
0,-0.178,0.977,,,,,
-0.004,-0.178,0.955,,,,,
-0.025,-0.178,0.961,,,,,
-0.008,-0.195,0.979,,,,,
0.002,-0.18,0.979,,,,,
0.002,-0.174,0.965,,,,,
-0.018,-0.174,0.951,,,,,
-0.021,-0.184,0.98,,,,,
-0.006,-0.195,0.979,,,,,
-0.004,-0.176,0.984,,,,,
-0.006,-0.176,0.947,,,,,
-0.025,-0.174,0.961,,,,,
-0.01,-0.191,0.988,,,,,
0.002,-0.184,0.984,,,,,
-0.002,-0.174,0.971,742,32.1,44.9,27650,2
-0.016,-0.174,0.951,,,,,
-0.02,-0.184,0.986,,,,,
-0.002,-0.191,0.977,,,,,
-0.004,-0.174,0.977,,,,,
-0.012,-0.178,0.953,,,,,
-0.023,-0.18,0.973,,,,,
-0.006,-0.193,0.992,,,,,
0.002,-0.178,0.969,,,,,
0.002,-0.172,0.955,,,,,
-0.02,-0.176,0.957,,,,,
-0.018,-0.184,0.986,,,,,
-0.004,-0.201,0.975,,,,,
-0.004,-0.178,0.975,,,,,
-0.004,-0.176,0.953,,,,,
-0.025,-0.18,0.98,,,,,
-0.004,-0.193,0.977,,,,,
-0.002,-0.176,0.977,,,,,
-0.002,-0.176,0.967,742,32.1,44.9,27826,2
-0.025,-0.18,0.975,,,,,
-0.01,-0.189,0.982,,,,,
0,-0.178,0.975,,,,,
-0.002,-0.176,0.969,,,,,
-0.021,-0.182,0.957,,,,,
-0.018,-0.182,0.986,,,,,
-0.002,-0.195,0.969,,,,,
0.004,-0.174,0.971,,,,,
-0.008,-0.18,0.957,,,,,
-0.021,-0.172,0.977,,,,,
-0.008,-0.191,0.98,,,,,
-0.004,-0.184,0.977,,,,,
-0.002,-0.172,0.963,,,,,
-0.023,-0.178,0.947,,,,,
-0.014,-0.188,0.986,,,,,
0.002,-0.191,0.977,,,,,
-0.002,-0.174,0.973,,,,,
-0.01,-0.176,0.943,742,32.1,44.9,28002,2
-0.023,-0.18,0.975,,,,,
-0.006,-0.193,0.982,,,,,
0,-0.178,0.975,,,,,
-0.002,-0.174,0.957,,,,,
-0.021,-0.182,0.959,,,,,
-0.016,-0.191,0.992,,,,,
0,-0.191,0.967,,,,,
-0.002,-0.172,0.963,,,,,
-0.014,-0.176,0.947,,,,,
-0.021,-0.18,0.975,,,,,
-0.006,-0.193,0.98,,,,,
-0.004,-0.176,0.975,,,,,
-0.004,-0.178,0.959,,,,,
-0.023,-0.178,0.963,,,,,
-0.01,-0.188,0.988,,,,,
0,-0.186,0.971,,,,,
-0.004,-0.17,0.969,,,,,
-0.012,-0.182,0.951,742,32.1,44.9,28178,2
-0.021,-0.182,0.979,,,,,
0,-0.195,0.975,,,,,
0.002,-0.174,0.977,,,,,
-0.004,-0.178,0.965,,,,,
-0.023,-0.178,0.965,,,,,
-0.01,-0.188,0.98,,,,,
-0.004,-0.186,0.969,,,,,
0,-0.174,0.969,,,,,
-0.016,-0.176,0.951,,,,,
-0.021,-0.184,0.982,,,,,
-0.002,-0.195,0.977,,,,,
-0.002,-0.178,0.982,,,,,
-0.002,-0.176,0.963,,,,,
-0.021,-0.18,0.959,,,,,
-0.014,-0.189,0.988,,,,,
-0.004,-0.191,0.975,,,,,
-0.006,-0.176,0.971,,,,,
-0.018,-0.178,0.947,742,32.1,44.9,28353,2
-0.018,-0.18,0.975,,,,,
-0.004,-0.189,0.982,,,,,
-0.002,-0.176,0.977,,,,,
-0.008,-0.184,0.947,,,,,
-0.027,-0.182,0.963,,,,,
-0.01,-0.195,0.988,,,,,
0,-0.184,0.971,,,,,
-0.002,-0.172,0.959,,,,,
-0.02,-0.176,0.951,,,,,
-0.02,-0.182,0.99,,,,,
0,-0.195,0.977,,,,,
-0.002,-0.176,0.975,,,,,
-0.004,-0.174,0.951,,,,,
-0.023,-0.176,0.975,,,,,
-0.006,-0.195,0.988,,,,,
0,-0.184,0.967,,,,,
-0.004,-0.178,0.967,,,,,
-0.018,-0.174,0.953,742,32.1,44.9,28529,2
-0.02,-0.182,0.984,,,,,
-0.004,-0.193,0.971,,,,,
-0.004,-0.172,0.975,,,,,
-0.004,-0.176,0.955,,,,,
-0.023,-0.18,0.969,,,,,
-0.01,-0.188,0.982,,,,,
0.002,-0.182,0.971,,,,,
-0.002,-0.176,0.973,,,,,
-0.023,-0.178,0.947,,,,,
-0.023,-0.186,0.982,,,,,
-0.002,-0.195,0.971,,,,,
-0.004,-0.174,0.98,,,,,
-0.004,-0.174,0.953,,,,,
-0.025,-0.182,0.965,,,,,
-0.01,-0.191,0.982,,,,,
0.002,-0.188,0.982,,,,,
0,-0.176,0.971,,,,,
-0.02,-0.176,0.943,742,32.1,44.9,28705,2
-0.021,-0.18,0.98,,,,,
-0.002,-0.193,0.975,,,,,
-0.002,-0.178,0.969,,,,,
-0.006,-0.178,0.951,,,,,
-0.025,-0.182,0.959,,,,,
-0.012,-0.193,0.992,,,,,
0,-0.178,0.977,,,,,
0.004,-0.17,0.961,,,,,
-0.021,-0.176,0.951,,,,,
-0.02,-0.184,0.984,,,,,
-0.006,-0.199,0.977,,,,,
-0.008,-0.172,0.971,,,,,
-0.006,-0.18,0.943,,,,,
-0.025,-0.178,0.973,,,,,
-0.006,-0.195,0.984,,,,,
-0.006,-0.18,0.969,,,,,
-0.002,-0.172,0.965,,,,,
-0.018,-0.174,0.955,742,32.1,44.9,28881,2
-0.021,-0.184,0.992,,,,,
-0.002,-0.193,0.971,,,,,
-0.008,-0.18,0.973,,,,,
-0.01,-0.18,0.957,,,,,
-0.023,-0.178,0.971,,,,,
-0.01,-0.191,0.986,,,,,
0.004,-0.178,0.975,,,,,
0.002,-0.176,0.961,,,,,
-0.02,-0.176,0.953,,,,,
-0.018,-0.182,0.979,,,,,
0,-0.191,0.973,,,,,
-0.002,-0.178,0.977,,,,,
-0.006,-0.174,0.949,,,,,
-0.025,-0.176,0.973,,,,,
-0.008,-0.191,0.979,,,,,
0,-0.189,0.982,,,,,
-0.002,-0.176,0.969,,,,,
-0.02,-0.172,0.949,742,32.1,44.9,29057,2
-0.018,-0.176,0.988,,,,,
-0.002,-0.189,0.971,,,,,
-0.004,-0.176,0.986,,,,,
-0.01,-0.178,0.945,,,,,
-0.027,-0.18,0.969,,,,,
-0.006,-0.199,0.986,,,,,
0,-0.182,0.975,,,,,
-0.002,-0.17,0.963,,,,,
-0.023,-0.172,0.953,,,,,
-0.018,-0.18,0.992,,,,,
-0.002,-0.191,0.979,,,,,
-0.002,-0.168,0.969,,,,,
-0.012,-0.18,0.945,,,,,
-0.021,-0.174,0.98,,,,,
-0.004,-0.195,0.98,,,,,
-0.006,-0.176,0.971,,,,,
-0.004,-0.178,0.957,,,,,
-0.021,-0.178,0.967,742,32.1,44.9,29232,2
-0.018,-0.184,0.982,,,,,
0,-0.193,0.977,,,,,
-0.002,-0.17,0.971,,,,,
-0.01,-0.176,0.953,,,,,
-0.025,-0.18,0.977,,,,,
-0.008,-0.195,0.975,,,,,
0,-0.172,0.975,,,,,
-0.004,-0.172,0.961,,,,,
-0.021,-0.174,0.953,,,,,
-0.014,-0.188,0.982,,,,,
-0.008,-0.189,0.969,,,,,
0,-0.174,0.973,,,,,
-0.016,-0.18,0.939,,,,,
-0.023,-0.178,0.977,,,,,
-0.008,-0.191,0.979,,,,,
0.002,-0.174,0.975,,,,,
-0.004,-0.172,0.955,,,,,
-0.023,-0.176,0.957,766,32.1,43.6,29450,2
-0.014,-0.189,0.99,,,,,
-0.002,-0.193,0.975,,,,,
0,-0.174,0.963,,,,,
-0.016,-0.172,0.945,,,,,
-0.023,-0.178,0.98,,,,,
-0.004,-0.195,0.979,,,,,
-0.004,-0.174,0.977,,,,,
-0.006,-0.174,0.947,,,,,
-0.027,-0.184,0.969,,,,,
-0.014,-0.191,0.982,,,,,
-0.004,-0.188,0.967,,,,,
-0.004,-0.17,0.971,,,,,
-0.016,-0.178,0.945,,,,,
-0.027,-0.182,0.984,,,,,
-0.004,-0.199,0.975,,,,,
-0.004,-0.174,0.977,,,,,
-0.008,-0.178,0.953,,,,,
-0.025,-0.18,0.967,766,32.1,43.6,29626,2
-0.01,-0.191,0.988,,,,,
-0.004,-0.182,0.965,,,,,
-0.002,-0.172,0.969,,,,,
-0.018,-0.178,0.951,,,,,
-0.021,-0.18,0.979,,,,,
-0.004,-0.199,0.971,,,,,
-0.004,-0.174,0.977,,,,,
-0.002,-0.176,0.957,,,,,
-0.023,-0.174,0.969,,,,,
-0.01,-0.191,0.98,,,,,
0,-0.186,0.979,,,,,
-0.002,-0.178,0.971,,,,,
-0.018,-0.174,0.949,,,,,
-0.025,-0.178,0.982,,,,,
-0.004,-0.197,0.973,,,,,
-0.006,-0.174,0.975,,,,,
-0.008,-0.18,0.953,,,,,
-0.027,-0.18,0.965,766,32.1,43.6,29801,2
-0.014,-0.195,0.982,,,,,
-0.004,-0.184,0.971,,,,,
-0.002,-0.168,0.969,,,,,
-0.023,-0.174,0.949,,,,,
-0.027,-0.184,0.986,,,,,
-0.008,-0.195,0.992,,,,,
-0.006,-0.178,0.975,,,,,
-0.01,-0.178,0.947,,,,,
-0.025,-0.178,0.973,,,,,
-0.008,-0.191,0.984,,,,,
0,-0.176,0.975,,,,,
0,-0.172,0.963,,,,,
-0.021,-0.172,0.953,,,,,
-0.02,-0.184,0.992,,,,,
0,-0.189,0.975,,,,,
0,-0.172,0.965,,,,,
-0.008,-0.178,0.955,,,,,
-0.02,-0.18,0.973,766,32.1,43.6,29977,2
-0.004,-0.191,0.982,,,,,
0.002,-0.178,0.975,,,,,
-0.004,-0.172,0.961,,,,,
-0.021,-0.18,0.957,,,,,
-0.021,-0.182,0.984,,,,,
-0.01,-0.191,0.969,,,,,
-0.006,-0.178,0.971,,,,,
-0.008,-0.174,0.955,,,,,
-0.027,-0.176,0.979,,,,,
-0.008,-0.193,0.975,,,,,
-0.002,-0.178,0.979,,,,,
-0.004,-0.18,0.965,,,,,
-0.021,-0.174,0.961,,,,,
-0.018,-0.186,0.982,,,,,
-0.004,-0.189,0.973,,,,,
-0.006,-0.176,0.979,,,,,
-0.01,-0.176,0.951,,,,,
-0.027,-0.174,0.971,766,32.1,43.6,30153,2
-0.012,-0.197,0.975,,,,,
0.002,-0.178,0.977,,,,,
-0.004,-0.17,0.953,,,,,
-0.021,-0.174,0.949,,,,,
-0.02,-0.189,0.986,,,,,
0,-0.191,0.98,,,,,
-0.006,-0.174,0.973,,,,,
-0.014,-0.172,0.943,,,,,
-0.027,-0.178,0.98,,,,,
-0.004,-0.195,0.98,,,,,
0,-0.174,0.977,,,,,
-0.008,-0.178,0.955,,,,,
-0.027,-0.176,0.955,,,,,
-0.014,-0.189,0.992,,,,,
-0.004,-0.186,0.971,,,,,
-0.004,-0.174,0.971,,,,,
-0.018,-0.182,0.951,,,,,
-0.025,-0.186,0.986,766,32.1,43.6,30329,2
-0.01,-0.201,0.979,,,,,
-0.004,-0.174,0.967,,,,,
-0.008,-0.172,0.959,,,,,
-0.025,-0.174,0.963,,,,,
-0.014,-0.189,0.99,,,,,
-0.002,-0.182,0.971,,,,,
-0.002,-0.172,0.969,,,,,
-0.014,-0.176,0.951,,,,,
-0.021,-0.178,0.982,,,,,
-0.006,-0.197,0.973,,,,,
-0.004,-0.17,0.973,,,,,
-0.006,-0.184,0.957,,,,,
-0.025,-0.178,0.963,,,,,
-0.014,-0.188,0.986,,,,,
-0.004,-0.182,0.975,,,,,
-0.004,-0.17,0.969,,,,,
-0.014,-0.174,0.955,,,,,
-0.023,-0.178,0.973,766,32.1,43.6,30505,2
-0.006,-0.195,0.975,,,,,
0,-0.172,0.975,,,,,
-0.006,-0.176,0.961,,,,,
-0.031,-0.176,0.957,,,,,
-0.012,-0.191,0.979,,,,,
-0.002,-0.178,0.98,,,,,
-0.002,-0.17,0.969,,,,,
-0.021,-0.174,0.949,,,,,
-0.021,-0.18,0.986,,,,,
-0.004,-0.197,0.979,,,,,
-0.004,-0.176,0.979,,,,,
-0.014,-0.18,0.949,,,,,
-0.025,-0.174,0.969,,,,,
-0.01,-0.189,0.992,,,,,
0,-0.178,0.973,,,,,
-0.002,-0.174,0.969,,,,,
-0.023,-0.182,0.955,,,,,
-0.021,-0.182,0.988,766,32.1,43.6,30680,2
-0.002,-0.189,0.977,,,,,
-0.002,-0.17,0.969,,,,,
-0.008,-0.176,0.951,,,,,
-0.025,-0.178,0.971,,,,,
-0.008,-0.189,0.984,,,,,
-0.004,-0.182,0.973,,,,,
-0.002,-0.174,0.965,,,,,
-0.021,-0.174,0.959,,,,,
-0.02,-0.18,0.986,,,,,
-0.004,-0.191,0.973,,,,,
-0.004,-0.174,0.971,,,,,
-0.01,-0.184,0.951,,,,,
-0.027,-0.178,0.969,,,,,
-0.008,-0.195,0.977,,,,,
-0.004,-0.178,0.977,,,,,
0,-0.172,0.969,,,,,
-0.021,-0.174,0.961,,,,,
-0.021,-0.18,0.98,766,32.1,43.6,30856,2
-0.006,-0.191,0.973,,,,,
-0.004,-0.172,0.977,,,,,
-0.008,-0.178,0.949,,,,,
-0.031,-0.174,0.971,,,,,
-0.01,-0.197,0.982,,,,,
0.002,-0.176,0.98,,,,,
-0.002,-0.174,0.967,,,,,
-0.025,-0.174,0.953,,,,,
-0.018,-0.184,0.988,,,,,
-0.002,-0.189,0.975,,,,,
-0.002,-0.176,0.982,,,,,
-0.01,-0.176,0.947,,,,,
-0.027,-0.178,0.975,,,,,
-0.012,-0.195,0.986,,,,,
-0.002,-0.178,0.967,,,,,
-0.004,-0.17,0.963,,,,,
-0.023,-0.174,0.957,,,,,
-0.021,-0.186,0.99,766,32.1,43.6,31032,2
-0.002,-0.195,0.979,,,,,
-0.002,-0.172,0.967,,,,,
-0.014,-0.18,0.949,,,,,
-0.025,-0.18,0.969,,,,,
-0.006,-0.199,0.984,,,,,
-0.006,-0.178,0.975,,,,,
-0.002,-0.176,0.961,,,,,
-0.021,-0.178,0.965,,,,,
-0.014,-0.178,0.982,,,,,
-0.004,-0.191,0.967,,,,,
0.002,-0.172,0.973,,,,,
-0.01,-0.184,0.949,,,,,
-0.029,-0.176,0.973,,,,,
-0.006,-0.193,0.977,,,,,
-0.004,-0.174,0.971,,,,,
-0.004,-0.174,0.967,,,,,
-0.025,-0.178,0.957,,,,,
-0.018,-0.18,0.982,766,32.1,43.6,31208,2
-0.002,-0.189,0.975,,,,,
-0.002,-0.17,0.971,,,,,
-0.014,-0.178,0.947,,,,,
-0.027,-0.178,0.979,,,,,
-0.01,-0.193,0.979,,,,,
-0.006,-0.176,0.975,,,,,
-0.004,-0.176,0.963,,,,,
-0.027,-0.176,0.953,,,,,
-0.016,-0.186,0.986,,,,,
0,-0.189,0.977,,,,,
-0.004,-0.174,0.975,,,,,
-0.01,-0.178,0.945,,,,,
-0.025,-0.182,0.979,,,,,
-0.004,-0.193,0.982,,,,,
-0.002,-0.17,0.965,,,,,
-0.006,-0.178,0.959,,,,,
-0.027,-0.178,0.955,,,,,
-0.014,-0.189,0.986,782,32.1,41.8,31423,2
-0.004,-0.182,0.973,,,,,
-0.006,-0.168,0.961,,,,,
-0.018,-0.178,0.955,,,,,
-0.025,-0.182,0.979,,,,,
-0.002,-0.191,0.975,,,,,
-0.004,-0.172,0.971,,,,,
-0.002,-0.176,0.951,,,,,
-0.027,-0.18,0.961,,,,,
-0.016,-0.191,0.98,,,,,
-0.006,-0.184,0.969,,,,,
-0.006,-0.178,0.971,,,,,
-0.018,-0.18,0.949,,,,,
-0.021,-0.178,0.99,,,,,
-0.006,-0.191,0.973,,,,,
-0.004,-0.172,0.975,,,,,
-0.006,-0.18,0.959,,,,,
-0.023,-0.174,0.961,,,,,
-0.014,-0.186,0.98,782,32.1,41.8,31599,2
0,-0.18,0.971,,,,,
-0.008,-0.17,0.967,,,,,
-0.02,-0.176,0.947,,,,,
-0.021,-0.178,0.982,,,,,
-0.002,-0.199,0.975,,,,,
-0.004,-0.176,0.98,,,,,
-0.01,-0.184,0.949,,,,,
-0.023,-0.172,0.967,,,,,
-0.014,-0.191,0.984,,,,,
0.004,-0.182,0.971,,,,,
-0.006,-0.17,0.965,,,,,
-0.021,-0.176,0.951,,,,,
-0.021,-0.18,0.994,,,,,
-0.008,-0.197,0.979,,,,,
0.002,-0.17,0.971,,,,,
-0.014,-0.178,0.951,,,,,
-0.025,-0.174,0.961,,,,,
-0.01,-0.197,0.986,782,32.1,41.8,31775,2
-0.004,-0.18,0.973,,,,,
0,-0.174,0.959,,,,,
-0.023,-0.17,0.961,,,,,
-0.021,-0.186,0.988,,,,,
-0.004,-0.191,0.975,,,,,
-0.006,-0.164,0.977,,,,,
-0.01,-0.18,0.947,,,,,
-0.027,-0.176,0.979,,,,,
-0.01,-0.188,0.979,,,,,
0,-0.178,0.975,,,,,
-0.004,-0.176,0.969,,,,,
-0.02,-0.174,0.955,,,,,
-0.016,-0.186,0.986,,,,,
0,-0.193,0.971,,,,,
-0.002,-0.17,0.975,,,,,
-0.012,-0.18,0.957,,,,,
-0.027,-0.178,0.973,,,,,
-0.008,-0.197,0.977,782,32.1,41.8,31951,2
-0.004,-0.176,0.975,,,,,
0,-0.17,0.967,,,,,
-0.02,-0.172,0.951,,,,,
-0.018,-0.176,0.99,,,,,
-0.004,-0.195,0.98,,,,,
-0.002,-0.176,0.98,,,,,
-0.016,-0.184,0.945,,,,,
-0.025,-0.172,0.965,,,,,
-0.012,-0.195,0.98,,,,,
0.002,-0.174,0.977,,,,,
-0.002,-0.176,0.959,,,,,
-0.027,-0.174,0.959,,,,,
-0.018,-0.188,0.984,,,,,
-0.002,-0.197,0.971,,,,,
-0.002,-0.172,0.967,,,,,
-0.014,-0.172,0.945,,,,,
-0.025,-0.18,0.973,,,,,
-0.01,-0.199,0.977,782,32.1,41.8,32127,2
-0.006,-0.178,0.971,,,,,
-0.006,-0.18,0.963,,,,,
-0.027,-0.174,0.959,,,,,
-0.014,-0.182,0.984,,,,,
-0.006,-0.186,0.975,,,,,
-0.002,-0.168,0.969,,,,,
-0.018,-0.178,0.951,,,,,
-0.027,-0.182,0.982,,,,,
-0.01,-0.195,0.98,,,,,
-0.008,-0.174,0.969,,,,,
-0.004,-0.18,0.959,,,,,
-0.027,-0.176,0.961,,,,,
-0.018,-0.184,0.986,,,,,
0,-0.186,0.975,,,,,
-0.002,-0.174,0.975,,,,,
-0.016,-0.18,0.951,,,,,
-0.027,-0.178,0.979,,,,,
-0.008,-0.195,0.973,782,32.1,41.8,32302,2
-0.004,-0.176,0.977,,,,,
-0.004,-0.172,0.961,,,,,
-0.023,-0.18,0.957,,,,,
-0.018,-0.188,0.986,,,,,
-0.004,-0.191,0.975,,,,,
0,-0.178,0.979,,,,,
-0.014,-0.176,0.947,,,,,
-0.025,-0.174,0.971,,,,,
-0.008,-0.195,0.975,,,,,
0,-0.178,0.973,,,,,
-0.002,-0.176,0.959,,,,,
-0.027,-0.176,0.957,,,,,
-0.016,-0.184,0.988,,,,,
-0.002,-0.186,0.98,,,,,
-0.002,-0.172,0.969,,,,,
-0.016,-0.176,0.945,,,,,
-0.029,-0.176,0.979,,,,,
-0.012,-0.197,0.971,782,32.1,41.8,32478,2
-0.008,-0.174,0.975,,,,,
-0.002,-0.176,0.957,,,,,
-0.027,-0.174,0.959,,,,,
-0.014,-0.189,0.982,,,,,
0,-0.186,0.971,,,,,
-0.002,-0.174,0.971,,,,,
-0.018,-0.176,0.947,,,,,
-0.023,-0.18,0.986,,,,,
-0.008,-0.191,0.98,,,,,
0.002,-0.176,0.967,,,,,
-0.008,-0.182,0.959,,,,,
-0.029,-0.174,0.955,,,,,
-0.01,-0.186,0.982,,,,,
-0.012,-0.188,0.975,,,,,
0,-0.168,0.971,,,,,
-0.01,-0.178,0.955,,,,,
-0.027,-0.176,0.984,,,,,
-0.01,-0.199,0.965,782,32.1,41.8,32654,2
-0.01,-0.178,0.98,,,,,
-0.004,-0.178,0.961,,,,,
-0.025,-0.178,0.959,,,,,
-0.014,-0.186,0.988,,,,,
-0.004,-0.186,0.975,,,,,
-0.004,-0.178,0.977,,,,,
-0.018,-0.174,0.947,,,,,
-0.025,-0.174,0.975,,,,,
-0.01,-0.195,0.977,,,,,
-0.004,-0.174,0.979,,,,,
-0.01,-0.174,0.957,,,,,
-0.025,-0.18,0.953,,,,,
-0.02,-0.195,0.988,,,,,
-0.008,-0.189,0.977,,,,,
-0.004,-0.168,0.967,,,,,
-0.02,-0.178,0.951,,,,,
-0.027,-0.176,0.982,,,,,
-0.002,-0.195,0.98,782,32.1,41.8,32830,2
-0.008,-0.178,0.979,,,,,
0.004,-0.17,0.961,,,,,
-0.029,-0.176,0.963,,,,,
-0.014,-0.186,0.984,,,,,
-0.002,-0.18,0.977,,,,,
-0.002,-0.17,0.963,,,,,
-0.014,-0.178,0.945,,,,,
-0.023,-0.182,0.984,,,,,
-0.008,-0.195,0.979,,,,,
-0.008,-0.17,0.975,,,,,
-0.008,-0.174,0.961,,,,,
-0.027,-0.176,0.959,,,,,
-0.014,-0.186,0.994,,,,,
-0.004,-0.184,0.963,,,,,
-0.004,-0.172,0.969,,,,,
-0.021,-0.182,0.953,,,,,
-0.023,-0.182,0.98,,,,,
-0.006,-0.191,0.977,782,32.1,41.8,33005,2
-0.002,-0.168,0.979,,,,,
-0.002,-0.17,0.957,,,,,
-0.025,-0.174,0.971,,,,,
-0.014,-0.184,0.975,,,,,
-0.004,-0.186,0.979,,,,,
-0.008,-0.174,0.975,,,,,
-0.018,-0.172,0.941,,,,,
-0.023,-0.176,0.982,,,,,
-0.002,-0.186,0.973,,,,,
0,-0.176,0.977,,,,,
-0.01,-0.172,0.951,,,,,
-0.025,-0.182,0.963,,,,,
-0.018,-0.189,0.984,,,,,
-0.004,-0.182,0.977,,,,,
-0.004,-0.168,0.969,,,,,
-0.023,-0.168,0.945,,,,,
-0.025,-0.178,0.988,,,,,
-0.006,-0.195,0.98,782,32.1,41.8,33181,2
-0.008,-0.172,0.973,,,,,
-0.01,-0.174,0.951,,,,,
-0.029,-0.176,0.969,,,,,
-0.01,-0.189,0.99,,,,,
-0.008,-0.174,0.973,,,,,
-0.004,-0.178,0.963,,,,,
-0.023,-0.18,0.955,,,,,
-0.021,-0.188,0.982,,,,,
-0.014,-0.197,0.971,,,,,
0,-0.174,0.977,,,,,
-0.004,-0.172,0.953,,,,,
-0.021,-0.178,0.984,,,,,
-0.004,-0.188,0.99,,,,,
-0.004,-0.178,0.967,,,,,
-0.008,-0.174,0.967,,,,,
-0.021,-0.176,0.945,,,,,
-0.016,-0.184,0.988,,,,,
-0.002,-0.197,0.982,758,32.2,40.5,33397,2
-0.004,-0.174,0.98,,,,,
-0.012,-0.18,0.945,,,,,
-0.025,-0.174,0.975,,,,,
-0.01,-0.191,0.98,,,,,
-0.006,-0.174,0.979,,,,,
-0.006,-0.176,0.967,,,,,
-0.029,-0.176,0.961,,,,,
-0.016,-0.182,0.988,,,,,
-0.002,-0.189,0.982,,,,,
0.002,-0.17,0.969,,,,,
-0.018,-0.18,0.945,,,,,
-0.025,-0.178,0.969,,,,,
-0.008,-0.199,0.977,,,,,
-0.006,-0.178,0.971,,,,,
-0.002,-0.168,0.959,,,,,
-0.021,-0.174,0.961,,,,,
-0.01,-0.184,0.982,,,,,
-0.004,-0.188,0.979,758,32.2,40.5,33573,2
-0.004,-0.168,0.965,,,,,
-0.016,-0.18,0.945,,,,,
-0.021,-0.18,0.977,,,,,
-0.012,-0.201,0.982,,,,,
-0.004,-0.182,0.967,,,,,
-0.006,-0.174,0.961,,,,,
-0.027,-0.178,0.965,,,,,
-0.016,-0.189,0.99,,,,,
-0.004,-0.193,0.979,,,,,
0.006,-0.166,0.969,,,,,
-0.018,-0.182,0.953,,,,,
-0.021,-0.178,0.984,,,,,
-0.01,-0.195,0.973,,,,,
-0.01,-0.174,0.975,,,,,
-0.002,-0.172,0.957,,,,,
-0.031,-0.18,0.959,,,,,
-0.012,-0.186,0.984,,,,,
-0.004,-0.186,0.971,758,32.2,40.5,33748,2
0,-0.168,0.971,,,,,
-0.014,-0.178,0.949,,,,,
-0.027,-0.178,0.975,,,,,
-0.006,-0.191,0.969,,,,,
-0.002,-0.176,0.979,,,,,
-0.006,-0.174,0.959,,,,,
-0.033,-0.172,0.959,,,,,
-0.016,-0.186,0.982,,,,,
-0.002,-0.189,0.969,,,,,
0,-0.174,0.967,,,,,
-0.016,-0.174,0.943,,,,,
-0.02,-0.178,0.977,,,,,
-0.006,-0.191,0.975,,,,,
-0.008,-0.176,0.977,,,,,
-0.004,-0.172,0.953,,,,,
-0.027,-0.182,0.959,,,,,
-0.018,-0.191,0.984,,,,,
-0.006,-0.191,0.975,758,32.2,40.5,33924,2
-0.004,-0.174,0.967,,,,,
-0.021,-0.174,0.945,,,,,
-0.021,-0.18,0.979,,,,,
-0.008,-0.201,0.975,,,,,
-0.004,-0.168,0.967,,,,,
-0.008,-0.168,0.953,,,,,
-0.027,-0.172,0.969,,,,,
-0.016,-0.188,0.986,,,,,
0.004,-0.178,0.967,,,,,
-0.004,-0.172,0.959,,,,,
-0.02,-0.176,0.949,,,,,
-0.021,-0.188,0.986,,,,,
-0.004,-0.195,0.973,,,,,
-0.004,-0.178,0.975,,,,,
-0.004,-0.18,0.961,,,,,
-0.025,-0.178,0.979,,,,,
-0.014,-0.186,0.988,,,,,
-0.006,-0.182,0.965,758,32.2,40.5,34100,2
-0.006,-0.174,0.963,,,,,
-0.018,-0.174,0.945,,,,,
-0.023,-0.176,0.975,,,,,
-0.004,-0.186,0.969,,,,,
0,-0.168,0.975,,,,,
-0.004,-0.168,0.949,,,,,
-0.029,-0.182,0.957,,,,,
-0.008,-0.189,0.963,,,,,
0.014,-0.188,0.975,,,,,
0.014,-0.168,0.969,,,,,
-0.004,-0.172,0.949,,,,,
-0.006,-0.186,0.988,,,,,
-0.002,-0.193,0.979,,,,,
-0.018,-0.189,0.992,,,,,
-0.004,-0.168,0.955,,,,,
-0.027,-0.178,0.977,,,,,
-0.008,-0.188,0.986,,,,,
0.004,-0.186,0.965,758,32.2,40.5,34276,2
-0.01,-0.174,0.936,,,,,
-0.035,-0.164,0.924,,,,,
-0.039,-0.174,0.965,,,,,
-0.01,-0.189,0.971,,,,,
0.002,-0.172,0.967,,,,,
-0.01,-0.178,0.957,,,,,
-0.027,-0.182,0.975,,,,,
-0.012,-0.197,0.99,,,,,
-0.002,-0.176,0.973,,,,,
0,-0.17,0.953,,,,,
-0.023,-0.18,0.957,,,,,
-0.021,-0.188,0.982,,,,,
-0.006,-0.197,0.969,,,,,
-0.01,-0.168,0.969,,,,,
-0.008,-0.174,0.949,,,,,
-0.025,-0.176,0.98,,,,,
-0.008,-0.193,0.975,,,,,
-0.006,-0.182,0.98,758,32.2,40.5,34452,2
-0.01,-0.188,0.963,,,,,
-0.021,-0.184,0.955,,,,,
-0.014,-0.182,0.99,,,,,
-0.006,-0.188,0.973,,,,,
0.004,-0.174,0.975,,,,,
-0.021,-0.184,0.93,,,,,
-0.021,-0.184,0.963,,,,,
-0.014,-0.199,0.986,,,,,
-0.004,-0.178,0.971,,,,,
0,-0.174,0.967,,,,,
-0.027,-0.174,0.957,,,,,
-0.018,-0.186,0.986,,,,,
0,-0.189,0.977,,,,,
-0.006,-0.176,0.971,,,,,
-0.014,-0.172,0.945,,,,,
-0.027,-0.182,0.98,,,,,
-0.01,-0.195,0.982,,,,,
0,-0.182,0.984,758,32.2,40.5,34627,2
-0.008,-0.176,0.951,,,,,
-0.025,-0.174,0.955,,,,,
-0.02,-0.189,0.986,,,,,
-0.002,-0.188,0.969,,,,,
-0.008,-0.172,0.971,,,,,
-0.014,-0.176,0.951,,,,,
-0.027,-0.178,0.982,,,,,
-0.008,-0.197,0.982,,,,,
0,-0.172,0.969,,,,,
-0.006,-0.17,0.953,,,,,
-0.025,-0.174,0.959,,,,,
-0.018,-0.189,0.988,,,,,
-0.006,-0.184,0.969,,,,,
-0.006,-0.17,0.967,,,,,
-0.018,-0.178,0.951,,,,,
-0.027,-0.178,0.982,,,,,
-0.01,-0.197,0.98,,,,,
-0.006,-0.168,0.975,758,32.2,40.5,34803,2
-0.006,-0.176,0.957,,,,,
-0.031,-0.174,0.977,,,,,
-0.012,-0.191,0.98,,,,,
-0.008,-0.176,0.971,,,,,
-0.006,-0.178,0.971,,,,,
-0.021,-0.178,0.957,,,,,
-0.025,-0.184,0.984,,,,,
-0.004,-0.191,0.967,,,,,
-0.008,-0.174,0.977,,,,,
0,-0.178,0.957,,,,,
-0.031,-0.176,0.965,,,,,
-0.01,-0.191,0.979,,,,,
-0.008,-0.18,0.977,,,,,
-0.004,-0.174,0.963,,,,,
-0.021,-0.174,0.949,,,,,
-0.021,-0.178,0.98,,,,,
-0.004,-0.193,0.979,,,,,
-0.006,-0.176,0.977,758,32.2,40.5,34979,2
-0.014,-0.174,0.949,,,,,
-0.025,-0.178,0.965,,,,,
-0.008,-0.188,0.977,,,,,
-0.008,-0.178,0.98,,,,,
-0.002,-0.178,0.965,,,,,
-0.027,-0.174,0.951,,,,,
-0.012,-0.188,0.98,,,,,
-0.004,-0.189,0.977,,,,,
-0.006,-0.174,0.977,,,,,
-0.006,-0.172,0.953,,,,,
-0.031,-0.18,0.973,,,,,
-0.01,-0.197,0.98,,,,,
-0.008,-0.174,0.969,,,,,
-0.002,-0.172,0.957,,,,,
-0.02,-0.174,0.961,,,,,
-0.018,-0.178,0.979,,,,,
-0.006,-0.189,0.963,,,,,
-0.012,-0.172,0.975,758,32.2,40.5,35155,2
-0.014,-0.189,0.945,,,,,
-0.029,-0.184,0.969,,,,,
-0.002,-0.191,0.971,,,,,
-0.002,-0.178,0.977,,,,,
-0.004,-0.178,0.961,,,,,
-0.033,-0.176,0.959,,,,,
-0.016,-0.186,0.982,,,,,
-0.01,-0.186,0.975,,,,,
0,-0.176,0.975,,,,,
-0.014,-0.174,0.957,,,,,
-0.025,-0.182,0.969,,,,,
-0.008,-0.189,0.98,,,,,
-0.006,-0.18,0.975,,,,,
0,-0.178,0.971,,,,,
-0.025,-0.172,0.957,,,,,
-0.018,-0.186,0.977,,,,,
-0.006,-0.188,0.984,,,,,
-0.004,-0.184,0.975,693,32.3,38.7,35379,2
-0.014,-0.17,0.953,,,,,
-0.027,-0.182,0.971,,,,,
-0.004,-0.189,0.986,,,,,
0,-0.178,0.984,,,,,
-0.006,-0.178,0.967,,,,,
-0.043,-0.174,0.934,,,,,
-0.016,-0.189,0.971,,,,,
0.004,-0.174,0.971,,,,,
-0.01,-0.174,0.982,,,,,
0,-0.152,0.939,,,,,
-0.018,-0.168,0.977,,,,,
-0.004,-0.188,0.988,,,,,
-0.008,-0.174,0.973,,,,,
0.002,-0.176,0.959,,,,,
-0.02,-0.174,0.959,,,,,
-0.014,-0.189,0.99,,,,,
0,-0.182,0.969,,,,,
0,-0.174,0.967,693,32.3,38.7,35547,2
-0.012,-0.174,0.955,,,,,
-0.021,-0.18,0.973,,,,,
-0.006,-0.191,0.98,,,,,
0,-0.17,0.967,,,,,
0.004,-0.174,0.959,,,,,
-0.029,-0.176,0.969,,,,,
-0.016,-0.189,0.979,,,,,
-0.008,-0.182,0.975,,,,,
0.004,-0.176,0.969,,,,,
-0.016,-0.172,0.953,,,,,
-0.02,-0.174,0.977,,,,,
-0.006,-0.191,0.977,,,,,
-0.004,-0.178,0.98,,,,,
-0.002,-0.176,0.963,,,,,
-0.027,-0.174,0.957,,,,,
-0.01,-0.189,0.984,,,,,
-0.004,-0.184,0.975,,,,,
0.002,-0.178,0.975,693,32.3,38.7,35722,2
-0.016,-0.17,0.955,,,,,
-0.021,-0.176,0.98,,,,,
-0.008,-0.186,0.99,,,,,
-0.004,-0.17,0.977,,,,,
-0.004,-0.17,0.949,,,,,
-0.025,-0.176,0.957,,,,,
-0.01,-0.188,0.977,,,,,
0,-0.186,0.982,,,,,
0.004,-0.172,0.959,,,,,
-0.02,-0.17,0.949,,,,,
-0.02,-0.189,0.984,,,,,
0.004,-0.186,0.982,,,,,
-0.004,-0.18,0.977,,,,,
-0.008,-0.164,0.934,,,,,
-0.027,-0.172,0.973,,,,,
-0.006,-0.188,0.992,,,,,
-0.008,-0.182,0.959,,,,,
-0.004,-0.178,0.963,693,32.3,38.7,35898,2
-0.016,-0.18,0.951,,,,,
-0.021,-0.186,0.982,,,,,
0.014,-0.182,0.982,,,,,
0,-0.166,0.973,,,,,
-0.01,-0.172,0.963,,,,,
-0.029,-0.176,0.975,,,,,
-0.01,-0.186,0.979,,,,,
-0.008,-0.18,0.969,,,,,
0.004,-0.172,0.967,,,,,
-0.02,-0.168,0.957,,,,,
-0.016,-0.18,0.988,,,,,
0,-0.184,0.977,,,,,
-0.004,-0.182,0.979,,,,,
-0.008,-0.17,0.953,,,,,
-0.031,-0.178,0.967,,,,,
-0.008,-0.186,0.984,,,,,
-0.002,-0.174,0.973,,,,,
-0.004,-0.176,0.969,693,32.3,38.7,36074,2
-0.023,-0.172,0.949,,,,,
-0.021,-0.189,0.986,,,,,
-0.002,-0.189,0.979,,,,,
-0.004,-0.172,0.971,,,,,
-0.004,-0.172,0.953,,,,,
-0.029,-0.178,0.973,,,,,
-0.006,-0.195,0.988,,,,,
-0.004,-0.184,0.977,,,,,
0,-0.172,0.955,,,,,
-0.025,-0.17,0.953,,,,,
-0.014,-0.184,0.982,,,,,
-0.008,-0.184,0.982,,,,,
0,-0.17,0.969,,,,,
-0.021,-0.17,0.953,,,,,
-0.02,-0.18,0.979,,,,,
-0.002,-0.191,0.996,,,,,
-0.012,-0.174,0.957,,,,,
-0.004,-0.17,0.947,693,32.3,38.7,36250,2
-0.025,-0.166,0.955,,,,,
-0.01,-0.189,0.977,,,,,
-0.004,-0.188,0.973,,,,,
0.004,-0.176,0.969,,,,,
-0.01,-0.17,0.955,,,,,
-0.025,-0.174,0.98,,,,,
-0.006,-0.186,0.988,,,,,
-0.006,-0.174,0.975,,,,,
0,-0.17,0.959,,,,,
-0.027,-0.178,0.955,,,,,
-0.014,-0.186,0.98,,,,,
-0.006,-0.184,0.979,,,,,
0.004,-0.178,0.973,,,,,
-0.016,-0.172,0.953,,,,,
-0.027,-0.174,0.971,,,,,
-0.006,-0.182,0.973,,,,,
-0.008,-0.178,0.98,,,,,
-0.004,-0.178,0.963,693,32.3,38.7,36426,2
-0.031,-0.174,0.967,,,,,
-0.012,-0.184,0.982,,,,,
-0.008,-0.176,0.973,,,,,
-0.004,-0.178,0.971,,,,,
-0.016,-0.166,0.947,,,,,
-0.027,-0.18,0.979,,,,,
-0.008,-0.189,0.984,,,,,
-0.008,-0.18,0.988,,,,,
0.004,-0.166,0.953,,,,,
-0.027,-0.17,0.965,,,,,
-0.008,-0.186,0.979,,,,,
-0.006,-0.182,0.975,,,,,
-0.002,-0.182,0.973,,,,,
-0.016,-0.172,0.951,,,,,
-0.07,-0.193,0.957,,,,,
-0.006,-0.189,0.982,,,,,
-0.004,-0.174,0.98,,,,,
0.002,-0.168,0.953,693,32.3,38.7,36601,2
-0.027,-0.176,0.963,,,,,
-0.012,-0.188,0.986,,,,,
-0.006,-0.186,0.971,,,,,
0.004,-0.172,0.973,,,,,
-0.016,-0.17,0.951,,,,,
-0.025,-0.178,0.979,,,,,
-0.008,-0.186,0.98,,,,,
-0.008,-0.174,0.979,,,,,
0,-0.17,0.955,,,,,
-0.031,-0.18,0.965,,,,,
-0.01,-0.188,0.986,,,,,
-0.008,-0.176,0.971,,,,,
-0.004,-0.18,0.973,,,,,
-0.016,-0.172,0.953,,,,,
-0.027,-0.184,0.969,,,,,
-0.002,-0.188,0.977,,,,,
-0.004,-0.182,0.98,,,,,
-0.004,-0.174,0.963,693,32.3,38.7,36777,2
-0.029,-0.172,0.965,,,,,
-0.008,-0.186,0.984,,,,,
-0.008,-0.174,0.984,,,,,
0.004,-0.176,0.971,,,,,
-0.02,-0.172,0.951,,,,,
-0.031,-0.182,0.973,,,,,
-0.006,-0.195,0.984,,,,,
-0.008,-0.17,0.979,,,,,
0,-0.166,0.951,,,,,
-0.029,-0.172,0.965,,,,,
-0.014,-0.189,0.99,,,,,
-0.008,-0.186,0.984,,,,,
0,-0.174,0.969,,,,,
-0.021,-0.168,0.953,,,,,
-0.018,-0.176,0.971,,,,,
-0.006,-0.188,0.982,,,,,
-0.006,-0.172,0.971,,,,,
-0.008,-0.17,0.957,693,32.3,38.7,36953,2
-0.027,-0.174,0.963,,,,,
-0.01,-0.189,0.984,,,,,
-0.006,-0.176,0.98,,,,,
0.002,-0.168,0.967,,,,,
-0.023,-0.172,0.959,,,,,
-0.021,-0.184,0.971,,,,,
-0.012,-0.189,0.979,,,,,
-0.006,-0.174,0.975,,,,,
-0.004,-0.174,0.959,,,,,
-0.031,-0.174,0.977,,,,,
-0.004,-0.186,0.986,,,,,
-0.01,-0.178,0.975,,,,,
-0.002,-0.18,0.965,,,,,
-0.023,-0.176,0.953,,,,,
-0.025,-0.18,0.971,,,,,
-0.008,-0.186,0.98,,,,,
-0.004,-0.172,0.977,,,,,
-0.006,-0.172,0.965,693,32.3,38.7,37129,2
-0.029,-0.172,0.969,,,,,
-0.014,-0.186,0.977,,,,,
-0.006,-0.182,0.977,,,,,
0.004,-0.176,0.957,,,,,
-0.023,-0.172,0.955,,,,,
-0.014,-0.176,0.977,,,,,
-0.014,-0.191,0.99,,,,,
-0.006,-0.176,0.979,,,,,
-0.006,-0.17,0.957,,,,,
-0.029,-0.176,0.965,,,,,
-0.008,-0.191,0.986,,,,,
-0.01,-0.182,0.979,,,,,
0,-0.168,0.963,,,,,
-0.021,-0.168,0.951,,,,,
-0.018,-0.186,0.98,,,,,
-0.01,-0.188,0.986,,,,,
-0.004,-0.178,0.975,,,,,
-0.01,-0.172,0.957,693,32.3,38.7,37305,2
-0.029,-0.174,0.969,,,,,
-0.008,-0.191,0.986,,,,,
-0.014,-0.174,0.977,,,,,
-0.004,-0.168,0.963,,,,,
-0.027,-0.174,0.965,,,,,
-0.016,-0.178,0.98,,,,,
-0.008,-0.189,0.98,,,,,
-0.002,-0.176,0.967,,,,,
-0.014,-0.174,0.959,,,,,
-0.025,-0.174,0.967,,,,,
-0.01,-0.182,0.979,,,,,
-0.006,-0.174,0.973,,,,,
-0.004,-0.172,0.963,,,,,
-0.027,-0.178,0.963,,,,,
-0.018,-0.188,0.98,,,,,
-0.012,-0.186,0.975,,,,,
0.002,-0.17,0.973,,,,,
-0.012,-0.164,0.959,668,32.5,38.6,37521,2
-0.025,-0.176,0.969,,,,,
-0.01,-0.186,0.979,,,,,
-0.008,-0.182,0.98,,,,,
-0.002,-0.172,0.957,,,,,
-0.029,-0.176,0.957,,,,,
-0.01,-0.178,0.975,,,,,
-0.008,-0.178,0.977,,,,,
-0.004,-0.172,0.965,,,,,
-0.021,-0.172,0.955,,,,,
-0.023,-0.18,0.971,,,,,
-0.01,-0.186,0.982,,,,,
-0.004,-0.176,0.979,,,,,
-0.002,-0.168,0.959,,,,,
-0.031,-0.172,0.961,,,,,
-0.014,-0.186,0.984,,,,,
-0.006,-0.189,0.977,,,,,
0,-0.172,0.967,,,,,
-0.021,-0.174,0.951,668,32.5,38.6,37696,2
-0.021,-0.18,0.975,,,,,
-0.008,-0.184,0.984,,,,,
-0.008,-0.172,0.977,,,,,
0,-0.164,0.961,,,,,
-0.031,-0.174,0.967,,,,,
-0.01,-0.182,0.986,,,,,
-0.016,-0.188,0.973,,,,,
-0.002,-0.174,0.965,,,,,
-0.02,-0.174,0.957,,,,,
-0.021,-0.174,0.969,,,,,
-0.01,-0.186,0.984,,,,,
-0.008,-0.172,0.977,,,,,
-0.004,-0.174,0.963,,,,,
-0.027,-0.18,0.969,,,,,
-0.012,-0.178,0.977,,,,,
-0.014,-0.182,0.979,,,,,
0.004,-0.168,0.969,,,,,
-0.025,-0.174,0.955,668,32.5,38.6,37872,2
-0.021,-0.182,0.975,,,,,
-0.014,-0.191,0.979,,,,,
-0.008,-0.182,0.982,,,,,
-0.006,-0.168,0.957,,,,,
-0.035,-0.166,0.965,,,,,
-0.012,-0.178,0.986,,,,,
-0.01,-0.184,0.979,,,,,
0.002,-0.186,0.975,,,,,
-0.021,-0.178,0.947,,,,,
-0.025,-0.182,0.969,,,,,
-0.01,-0.186,0.984,,,,,
-0.004,-0.17,0.977,,,,,
-0.006,-0.166,0.959,,,,,
-0.033,-0.172,0.959,,,,,
-0.014,-0.182,0.982,,,,,
-0.01,-0.182,0.971,,,,,
-0.004,-0.172,0.961,,,,,
-0.025,-0.176,0.951,668,32.5,38.6,38048,2
-0.025,-0.178,0.975,,,,,
-0.012,-0.195,0.986,,,,,
-0.01,-0.174,0.975,,,,,
-0.006,-0.168,0.957,,,,,
-0.029,-0.178,0.965,,,,,
-0.016,-0.184,0.986,,,,,
-0.014,-0.184,0.977,,,,,
-0.004,-0.174,0.963,,,,,
-0.021,-0.172,0.957,,,,,
-0.021,-0.18,0.977,,,,,
-0.012,-0.188,0.98,,,,,
-0.01,-0.174,0.971,,,,,
-0.002,-0.17,0.961,,,,,
-0.029,-0.176,0.971,,,,,
-0.008,-0.182,0.982,,,,,
-0.012,-0.178,0.98,,,,,
0,-0.172,0.961,,,,,
-0.025,-0.178,0.957,668,32.5,38.6,38224,2
-0.025,-0.184,0.982,,,,,
-0.008,-0.189,0.977,,,,,
-0.006,-0.174,0.977,,,,,
-0.01,-0.164,0.957,,,,,
-0.031,-0.174,0.971,,,,,
-0.008,-0.188,0.977,,,,,
-0.01,-0.184,0.982,,,,,
0,-0.176,0.965,,,,,
-0.025,-0.172,0.955,,,,,
-0.021,-0.18,0.977,,,,,
-0.008,-0.186,0.98,,,,,
-0.006,-0.176,0.969,,,,,
-0.012,-0.174,0.957,,,,,
-0.027,-0.182,0.965,,,,,
-0.01,-0.184,0.986,,,,,
-0.006,-0.178,0.986,,,,,
0,-0.166,0.963,,,,,
-0.031,-0.174,0.955,668,32.5,38.6,38400,2
-0.018,-0.178,0.98,,,,,
-0.012,-0.189,0.979,,,,,
-0.008,-0.172,0.971,,,,,
-0.014,-0.172,0.941,,,,,
-0.025,-0.17,0.977,,,,,
-0.008,-0.186,0.982,,,,,
-0.008,-0.166,0.98,,,,,
-0.008,-0.172,0.957,,,,,
-0.025,-0.17,0.963,,,,,
-0.016,-0.184,0.973,,,,,
-0.01,-0.18,0.975,,,,,
-0.004,-0.176,0.967,,,,,
-0.016,-0.172,0.955,,,,,
-0.027,-0.174,0.973,,,,,
-0.008,-0.186,0.98,,,,,
-0.01,-0.176,0.977,,,,,
-0.004,-0.174,0.961,,,,,
-0.031,-0.17,0.953,668,32.5,38.6,38575,2
-0.016,-0.184,0.98,,,,,
-0.01,-0.182,0.977,,,,,
-0.004,-0.178,0.971,,,,,
-0.016,-0.172,0.957,,,,,
-0.025,-0.178,0.969,,,,,
-0.01,-0.188,0.979,,,,,
-0.008,-0.172,0.98,,,,,
-0.002,-0.176,0.959,,,,,
-0.025,-0.168,0.959,,,,,
-0.014,-0.184,0.975,,,,,
-0.008,-0.188,0.977,,,,,
0,-0.178,0.967,,,,,
-0.021,-0.172,0.951,,,,,
-0.025,-0.18,0.971,,,,,
-0.01,-0.188,0.98,,,,,
-0.008,-0.176,0.971,,,,,
-0.004,-0.166,0.953,,,,,
-0.031,-0.166,0.963,668,32.5,38.6,38751,2
-0.012,-0.186,0.986,,,,,
-0.012,-0.182,0.982,,,,,
-0.004,-0.174,0.965,,,,,
-0.021,-0.174,0.951,,,,,
-0.021,-0.178,0.973,,,,,
-0.008,-0.191,0.982,,,,,
-0.012,-0.172,0.975,,,,,
-0.004,-0.174,0.957,,,,,
-0.029,-0.172,0.971,,,,,
-0.01,-0.188,0.986,,,,,
-0.01,-0.182,0.975,,,,,
-0.008,-0.172,0.965,,,,,
-0.018,-0.174,0.959,,,,,
-0.027,-0.186,0.975,,,,,
-0.008,-0.188,0.986,,,,,
-0.008,-0.17,0.969,,,,,
-0.006,-0.176,0.961,,,,,
-0.029,-0.178,0.965,668,32.5,38.6,38927,2
-0.014,-0.184,0.979,,,,,
-0.014,-0.182,0.977,,,,,
0.002,-0.172,0.965,,,,,
-0.02,-0.168,0.951,,,,,
-0.027,-0.172,0.973,,,,,
-0.01,-0.186,0.982,,,,,
-0.008,-0.178,0.979,,,,,
-0.006,-0.178,0.965,,,,,
-0.031,-0.17,0.957,,,,,
-0.014,-0.184,0.982,,,,,
-0.008,-0.176,0.98,,,,,
-0.006,-0.176,0.965,,,,,
-0.021,-0.172,0.953,,,,,
-0.025,-0.18,0.965,,,,,
-0.012,-0.189,0.984,,,,,
-0.006,-0.174,0.975,,,,,
-0.008,-0.168,0.951,,,,,
-0.037,-0.174,0.959,668,32.5,38.6,39103,2
-0.014,-0.188,0.979,,,,,
-0.01,-0.184,0.982,,,,,
-0.002,-0.174,0.969,,,,,
-0.021,-0.17,0.953,,,,,
-0.025,-0.178,0.979,,,,,
-0.01,-0.189,0.984,,,,,
-0.01,-0.178,0.977,,,,,
-0.008,-0.17,0.959,,,,,
-0.031,-0.172,0.963,,,,,
-0.016,-0.189,0.988,,,,,
-0.008,-0.178,0.969,,,,,
-0.002,-0.174,0.965,,,,,
-0.021,-0.172,0.955,,,,,
-0.025,-0.182,0.969,,,,,
-0.012,-0.191,0.977,,,,,
-0.008,-0.172,0.975,,,,,
-0.004,-0.172,0.957,,,,,
-0.031,-0.176,0.965,668,32.5,38.6,39278,2
-0.014,-0.186,0.977,,,,,
-0.012,-0.18,0.971,,,,,
0,-0.172,0.967,,,,,
-0.021,-0.17,0.961,,,,,
-0.023,-0.182,0.973,,,,,
-0.01,-0.189,0.979,,,,,
-0.006,-0.174,0.975,,,,,
-0.004,-0.172,0.961,,,,,
-0.033,-0.174,0.963,,,,,
-0.01,-0.186,0.982,,,,,
-0.008,-0.178,0.982,,,,,
0,-0.168,0.965,,,,,
-0.025,-0.174,0.947,,,,,
-0.023,-0.178,0.971,,,,,
-0.012,-0.189,0.986,,,,,
-0.008,-0.172,0.971,,,,,
-0.008,-0.172,0.947,,,,,
-0.033,-0.176,0.969,650,32.6,41.3,39495,2
-0.012,-0.188,0.984,,,,,
-0.008,-0.178,0.979,,,,,
-0.002,-0.176,0.955,,,,,
-0.023,-0.17,0.959,,,,,
-0.02,-0.18,0.982,,,,,
-0.01,-0.182,0.979,,,,,
-0.006,-0.176,0.971,,,,,
-0.012,-0.172,0.957,,,,,
-0.031,-0.182,0.965,,,,,
-0.008,-0.188,0.984,,,,,
-0.01,-0.176,0.977,,,,,
0.002,-0.172,0.955,,,,,
-0.025,-0.172,0.959,,,,,
-0.018,-0.184,0.975,,,,,
-0.014,-0.189,0.977,,,,,
-0.008,-0.172,0.969,,,,,
-0.01,-0.172,0.955,,,,,
-0.027,-0.172,0.973,650,32.6,41.3,39670,2
-0.006,-0.184,0.98,,,,,
-0.01,-0.178,0.973,,,,,
-0.004,-0.176,0.963,,,,,
-0.027,-0.17,0.959,,,,,
-0.018,-0.182,0.975,,,,,
-0.012,-0.182,0.977,,,,,
0,-0.174,0.971,,,,,
-0.016,-0.176,0.957,,,,,
-0.029,-0.18,0.965,,,,,
-0.014,-0.189,0.984,,,,,
-0.004,-0.174,0.977,,,,,
-0.004,-0.168,0.959,,,,,
-0.029,-0.166,0.953,,,,,
-0.018,-0.18,0.979,,,,,
-0.01,-0.186,0.98,,,,,
-0.004,-0.174,0.975,,,,,
-0.014,-0.174,0.953,,,,,
-0.029,-0.178,0.967,650,32.6,41.3,39846,2
-0.008,-0.189,0.982,,,,,
-0.008,-0.178,0.982,,,,,
-0.004,-0.17,0.955,,,,,
-0.027,-0.178,0.963,,,,,
-0.014,-0.184,0.984,,,,,
-0.012,-0.182,0.982,,,,,
-0.004,-0.176,0.967,,,,,
-0.021,-0.17,0.951,,,,,
-0.023,-0.178,0.971,,,,,
-0.01,-0.188,0.986,,,,,
-0.01,-0.17,0.973,,,,,
-0.002,-0.174,0.959,,,,,
-0.031,-0.17,0.959,,,,,
-0.012,-0.186,0.98,,,,,
-0.014,-0.18,0.98,,,,,
-0.004,-0.172,0.961,,,,,
-0.016,-0.174,0.955,,,,,
-0.027,-0.178,0.977,650,32.6,41.3,40022,2
-0.012,-0.191,0.982,,,,,
-0.008,-0.176,0.977,,,,,
0,-0.17,0.955,,,,,
-0.029,-0.174,0.965,,,,,
-0.014,-0.182,0.975,,,,,
-0.014,-0.18,0.975,,,,,
0,-0.178,0.975,,,,,
-0.021,-0.174,0.957,,,,,
-0.025,-0.18,0.973,,,,,
-0.012,-0.188,0.98,,,,,
-0.006,-0.174,0.971,,,,,
-0.008,-0.172,0.959,,,,,
-0.035,-0.176,0.957,,,,,
-0.012,-0.188,0.982,,,,,
-0.008,-0.182,0.982,,,,,
-0.002,-0.172,0.973,,,,,
-0.02,-0.17,0.953,,,,,
-0.023,-0.172,0.971,650,32.6,41.3,40198,2
-0.008,-0.191,0.982,,,,,
-0.01,-0.176,0.977,,,,,
-0.008,-0.18,0.955,,,,,
-0.029,-0.174,0.961,,,,,
-0.012,-0.189,0.984,,,,,
-0.006,-0.174,0.98,,,,,
-0.004,-0.172,0.961,,,,,
-0.025,-0.168,0.961,,,,,
-0.021,-0.18,0.977,,,,,
-0.01,-0.191,0.984,,,,,
-0.004,-0.172,0.969,,,,,
-0.01,-0.17,0.953,,,,,
-0.027,-0.174,0.965,,,,,
-0.014,-0.189,0.98,,,,,
-0.014,-0.182,0.967,,,,,
-0.002,-0.172,0.965,,,,,
-0.023,-0.174,0.959,,,,,
-0.02,-0.176,0.982,650,32.6,41.3,40374,2
-0.01,-0.188,0.979,,,,,
-0.008,-0.178,0.969,,,,,
-0.01,-0.178,0.953,,,,,
-0.031,-0.178,0.965,,,,,
-0.01,-0.186,0.984,,,,,
-0.008,-0.176,0.979,,,,,
-0.004,-0.172,0.967,,,,,
-0.021,-0.174,0.959,,,,,
-0.021,-0.178,0.975,,,,,
-0.008,-0.191,0.977,,,,,
-0.006,-0.168,0.969,,,,,
-0.008,-0.176,0.955,,,,,
-0.033,-0.176,0.959,,,,,
-0.012,-0.186,0.98,,,,,
-0.008,-0.18,0.984,,,,,
0.002,-0.17,0.963,,,,,
-0.027,-0.164,0.959,,,,,
-0.016,-0.178,0.973,650,32.6,41.3,40549,2
-0.008,-0.184,0.986,,,,,
-0.004,-0.172,0.979,,,,,
-0.014,-0.17,0.947,,,,,
-0.027,-0.18,0.963,,,,,
-0.008,-0.189,0.99,,,,,
-0.01,-0.18,0.977,,,,,
-0.004,-0.166,0.963,,,,,
-0.025,-0.17,0.955,,,,,
-0.018,-0.182,0.982,,,,,
-0.008,-0.186,0.982,,,,,
-0.004,-0.172,0.965,,,,,
-0.014,-0.174,0.951,,,,,
-0.031,-0.172,0.961,,,,,
-0.008,-0.195,0.986,,,,,
-0.012,-0.172,0.975,,,,,
0,-0.166,0.953,,,,,
-0.027,-0.172,0.971,,,,,
-0.014,-0.18,0.982,650,32.6,41.3,40725,2
-0.01,-0.193,0.975,,,,,
-0.006,-0.174,0.969,,,,,
-0.014,-0.17,0.951,,,,,
-0.023,-0.174,0.975,,,,,
-0.006,-0.186,0.977,,,,,
-0.01,-0.178,0.98,,,,,
-0.004,-0.18,0.973,,,,,
-0.027,-0.176,0.961,,,,,
-0.016,-0.182,0.986,,,,,
-0.01,-0.184,0.975,,,,,
0.004,-0.172,0.969,,,,,
-0.012,-0.176,0.953,,,,,
-0.027,-0.176,0.965,,,,,
-0.014,-0.191,0.979,,,,,
-0.012,-0.18,0.98,,,,,
-0.004,-0.168,0.963,,,,,
-0.027,-0.172,0.963,,,,,
-0.016,-0.174,0.98,650,32.6,41.3,40901,2
-0.008,-0.186,0.982,,,,,
-0.004,-0.178,0.975,,,,,
-0.016,-0.174,0.955,,,,,
-0.025,-0.182,0.975,,,,,
-0.01,-0.189,0.986,,,,,
-0.008,-0.174,0.98,,,,,
-0.006,-0.172,0.963,,,,,
-0.029,-0.174,0.955,,,,,
-0.014,-0.184,0.982,,,,,
-0.012,-0.189,0.982,,,,,
-0.004,-0.172,0.967,,,,,
-0.018,-0.172,0.957,,,,,
-0.027,-0.176,0.977,,,,,
-0.006,-0.193,0.98,,,,,
-0.012,-0.172,0.967,,,,,
-0.004,-0.17,0.953,,,,,
-0.031,-0.178,0.967,,,,,
-0.014,-0.186,0.975,650,32.6,41.3,41077,2
-0.014,-0.182,0.977,,,,,
0,-0.168,0.965,,,,,
-0.02,-0.17,0.961,,,,,
-0.023,-0.18,0.977,,,,,
-0.012,-0.188,0.979,,,,,
-0.008,-0.18,0.973,,,,,
-0.006,-0.17,0.957,,,,,
-0.035,-0.176,0.957,,,,,
-0.014,-0.182,0.986,,,,,
-0.008,-0.178,0.977,,,,,
-0.004,-0.17,0.973,,,,,
-0.02,-0.176,0.955,,,,,
-0.027,-0.178,0.971,,,,,
-0.008,-0.193,0.977,,,,,
-0.01,-0.172,0.979,,,,,
-0.006,-0.17,0.957,,,,,
-0.033,-0.174,0.961,,,,,
-0.012,-0.184,0.979,650,32.6,41.3,41252,2
-0.012,-0.184,0.982,,,,,
-0.004,-0.172,0.963,,,,,
-0.023,-0.172,0.951,,,,,
-0.021,-0.176,0.973,,,,,
-0.006,-0.186,0.982,,,,,
-0.004,-0.174,0.969,,,,,
0,-0.17,0.959,,,,,
-0.021,-0.172,0.953,,,,,
-0.02,-0.18,0.979,,,,,
-0.008,-0.191,0.982,,,,,
-0.008,-0.178,0.975,,,,,
-0.008,-0.168,0.951,,,,,
-0.033,-0.174,0.975,,,,,
-0.008,-0.188,0.988,,,,,
-0.014,-0.18,0.975,,,,,
-0.002,-0.178,0.961,,,,,
-0.027,-0.174,0.955,,,,,
-0.02,-0.178,0.971,663,32.7,43.4,41467,2
-0.008,-0.184,0.979,,,,,
-0.002,-0.17,0.965,,,,,
-0.01,-0.172,0.961,,,,,
-0.029,-0.182,0.967,,,,,
-0.012,-0.184,0.98,,,,,
-0.012,-0.178,0.969,,,,,
0.002,-0.172,0.963,,,,,
-0.023,-0.172,0.957,,,,,
-0.02,-0.178,0.977,,,,,
-0.01,-0.186,0.977,,,,,
-0.006,-0.178,0.98,,,,,
-0.006,-0.172,0.959,,,,,
-0.031,-0.174,0.965,,,,,
-0.01,-0.189,0.982,,,,,
-0.008,-0.178,0.984,,,,,
-0.002,-0.176,0.969,,,,,
-0.031,-0.172,0.951,,,,,
-0.018,-0.186,0.977,663,32.7,43.4,41643,2
-0.008,-0.188,0.98,,,,,
-0.006,-0.172,0.973,,,,,
-0.012,-0.172,0.955,,,,,
-0.031,-0.172,0.963,,,,,
-0.008,-0.188,0.99,,,,,
-0.008,-0.176,0.977,,,,,
-0.004,-0.172,0.961,,,,,
-0.029,-0.174,0.955,,,,,
-0.018,-0.182,0.977,,,,,
-0.008,-0.191,0.977,,,,,
-0.002,-0.166,0.955,,,,,
-0.029,-0.172,0.961,,,,,
-0.016,-0.186,0.982,,,,,
-0.012,-0.188,0.986,,,,,
-0.006,-0.174,0.979,,,,,
-0.014,-0.17,0.951,,,,,
-0.029,-0.178,0.975,,,,,
-0.008,-0.189,0.992,663,32.7,43.4,41819,2
-0.012,-0.174,0.969,,,,,
-0.004,-0.174,0.959,,,,,
-0.027,-0.18,0.963,,,,,
-0.01,-0.178,0.98,,,,,
-0.008,-0.184,0.975,,,,,
-0.004,-0.164,0.965,,,,,
-0.012,-0.174,0.953,,,,,
-0.031,-0.176,0.971,,,,,
-0.012,-0.191,0.977,,,,,
-0.012,-0.178,0.973,,,,,
0,-0.168,0.957,,,,,
-0.029,-0.174,0.961,,,,,
-0.012,-0.178,0.979,,,,,
-0.01,-0.184,0.98,,,,,
-0.002,-0.176,0.973,,,,,
-0.016,-0.176,0.955,,,,,
-0.031,-0.18,0.969,,,,,
-0.008,-0.182,0.979,663,32.7,43.4,41994,2
-0.008,-0.172,0.975,,,,,
-0.006,-0.17,0.957,,,,,
-0.031,-0.174,0.955,,,,,
-0.012,-0.188,0.98,,,,,
-0.008,-0.188,0.977,,,,,
-0.002,-0.172,0.969,,,,,
-0.018,-0.168,0.953,,,,,
-0.025,-0.174,0.971,,,,,
-0.008,-0.191,0.986,,,,,
-0.01,-0.174,0.975,,,,,
-0.008,-0.168,0.949,,,,,
-0.033,-0.176,0.963,,,,,
-0.012,-0.186,0.988,,,,,
-0.008,-0.182,0.98,,,,,
-0.002,-0.17,0.963,,,,,
-0.021,-0.174,0.957,,,,,
-0.023,-0.182,0.98,,,,,
-0.008,-0.189,0.982,663,32.7,43.4,42170,2
-0.008,-0.178,0.973,,,,,
-0.006,-0.176,0.963,,,,,
-0.031,-0.176,0.965,,,,,
-0.008,-0.184,0.982,,,,,
-0.01,-0.182,0.975,,,,,
-0.002,-0.166,0.965,,,,,
-0.018,-0.172,0.959,,,,,
-0.023,-0.18,0.975,,,,,
-0.01,-0.191,0.977,,,,,
-0.008,-0.174,0.971,,,,,
-0.004,-0.17,0.959,,,,,
-0.027,-0.178,0.969,,,,,
-0.012,-0.184,0.975,,,,,
-0.012,-0.189,0.982,,,,,
0,-0.176,0.971,,,,,
-0.023,-0.17,0.955,,,,,
-0.021,-0.178,0.98,,,,,
-0.01,-0.18,0.977,663,32.7,43.4,42346,2
-0.006,-0.178,0.982,,,,,
-0.006,-0.174,0.959,,,,,
-0.035,-0.174,0.957,,,,,
-0.014,-0.188,0.988,,,,,
-0.008,-0.18,0.977,,,,,
0,-0.168,0.965,,,,,
-0.021,-0.172,0.957,,,,,
-0.025,-0.178,0.973,,,,,
-0.01,-0.189,0.986,,,,,
-0.008,-0.174,0.975,,,,,
-0.01,-0.172,0.951,,,,,
-0.033,-0.174,0.965,,,,,
-0.008,-0.188,0.984,,,,,
-0.012,-0.18,0.977,,,,,
0.002,-0.172,0.965,,,,,
-0.027,-0.172,0.953,,,,,
-0.021,-0.182,0.977,,,,,
-0.01,-0.186,0.982,663,32.7,43.4,42522,2
-0.004,-0.174,0.971,,,,,
-0.008,-0.17,0.959,,,,,
-0.031,-0.176,0.963,,,,,
-0.01,-0.189,0.988,,,,,
-0.01,-0.184,0.971,,,,,
-0.002,-0.17,0.963,,,,,
-0.02,-0.176,0.961,,,,,
-0.02,-0.176,0.979,,,,,
-0.01,-0.182,0.979,,,,,
-0.006,-0.176,0.975,,,,,
-0.008,-0.172,0.957,,,,,
-0.035,-0.176,0.961,,,,,
-0.008,-0.191,0.982,,,,,
-0.012,-0.176,0.975,,,,,
0,-0.174,0.975,,,,,
-0.023,-0.168,0.961,,,,,
-0.025,-0.18,0.973,,,,,
-0.01,-0.186,0.979,663,32.7,43.4,42697,2
-0.008,-0.174,0.975,,,,,
-0.008,-0.172,0.957,,,,,
-0.031,-0.178,0.961,,,,,
-0.008,-0.189,0.98,,,,,
-0.01,-0.18,0.977,,,,,
0,-0.176,0.969,,,,,
-0.029,-0.172,0.953,,,,,
-0.018,-0.18,0.973,,,,,
-0.006,-0.186,0.984,,,,,
-0.006,-0.176,0.98,,,,,
-0.01,-0.17,0.951,,,,,
-0.029,-0.174,0.969,,,,,
-0.008,-0.188,0.984,,,,,
-0.012,-0.182,0.975,,,,,
-0.002,-0.176,0.963,,,,,
-0.027,-0.172,0.951,,,,,
-0.016,-0.182,0.98,,,,,
-0.008,-0.182,0.979,663,32.7,43.4,42873,2
-0.01,-0.178,0.969,,,,,
-0.01,-0.176,0.959,,,,,
-0.031,-0.178,0.965,,,,,
-0.008,-0.189,0.99,,,,,
-0.01,-0.174,0.969,,,,,
-0.004,-0.174,0.961,,,,,
-0.025,-0.174,0.963,,,,,
-0.018,-0.186,0.98,,,,,
-0.012,-0.189,0.977,,,,,
-0.004,-0.176,0.969,,,,,
-0.01,-0.168,0.959,,,,,
-0.027,-0.178,0.965,,,,,
-0.01,-0.191,0.975,,,,,
-0.008,-0.178,0.98,,,,,
0,-0.176,0.959,,,,,
-0.025,-0.174,0.955,,,,,
-0.018,-0.186,0.98,,,,,
-0.01,-0.186,0.969,663,32.7,43.4,43049,2
-0.004,-0.178,0.98,,,,,
-0.012,-0.168,0.961,,,,,
-0.029,-0.178,0.969,,,,,
-0.01,-0.189,0.98,,,,,
-0.008,-0.176,0.975,,,,,
-0.006,-0.174,0.965,,,,,
-0.031,-0.17,0.953,,,,,
-0.018,-0.184,0.971,,,,,
-0.012,-0.191,0.986,,,,,
-0.004,-0.178,0.969,,,,,
-0.016,-0.172,0.947,,,,,
-0.029,-0.18,0.967,,,,,
-0.006,-0.188,0.982,,,,,
-0.012,-0.178,0.98,,,,,
-0.006,-0.172,0.951,,,,,
-0.029,-0.174,0.955,,,,,
-0.012,-0.186,0.982,,,,,
-0.008,-0.186,0.977,663,32.7,43.4,43225,2
-0.002,-0.176,0.969,,,,,
-0.021,-0.176,0.953,,,,,
-0.021,-0.178,0.977,,,,,
-0.008,-0.191,0.984,,,,,
-0.006,-0.174,0.979,,,,,
-0.004,-0.174,0.957,,,,,
-0.025,-0.174,0.967,,,,,
-0.014,-0.178,0.982,,,,,
-0.01,-0.191,0.975,,,,,
-0.006,-0.174,0.973,,,,,
-0.004,-0.176,0.957,,,,,
-0.025,-0.176,0.967,,,,,
-0.014,-0.186,0.977,,,,,
-0.01,-0.184,0.977,,,,,
-0.006,-0.178,0.969,,,,,
-0.021,-0.174,0.957,,,,,
-0.018,-0.176,0.979,,,,,
-0.004,-0.186,0.971,696,32.9,43.1,43440,2
-0.006,-0.17,0.971,,,,,
-0.008,-0.168,0.965,,,,,
-0.029,-0.176,0.963,,,,,
-0.01,-0.188,0.986,,,,,
-0.01,-0.18,0.982,,,,,
-0.004,-0.174,0.967,,,,,
-0.023,-0.172,0.953,,,,,
-0.018,-0.182,0.975,,,,,
-0.006,-0.191,0.986,,,,,
-0.008,-0.176,0.979,,,,,
-0.01,-0.174,0.953,,,,,
-0.025,-0.172,0.969,,,,,
-0.01,-0.186,0.99,,,,,
-0.012,-0.18,0.98,,,,,
-0.004,-0.166,0.961,,,,,
-0.027,-0.18,0.957,,,,,
-0.018,-0.186,0.979,,,,,
-0.006,-0.193,0.982,696,32.9,43.1,43616,2
-0.002,-0.166,0.965,,,,,
-0.01,-0.17,0.955,,,,,
-0.027,-0.17,0.973,,,,,
-0.01,-0.188,0.982,,,,,
-0.006,-0.176,0.977,,,,,
-0.004,-0.174,0.957,,,,,
-0.029,-0.178,0.959,,,,,
-0.008,-0.176,0.975,,,,,
-0.01,-0.186,0.98,,,,,
-0.002,-0.168,0.969,,,,,
-0.002,-0.17,0.961,,,,,
-0.02,-0.172,0.975,,,,,
-0.01,-0.182,0.977,,,,,
-0.008,-0.174,0.977,,,,,
-0.004,-0.174,0.965,,,,,
-0.027,-0.172,0.961,,,,,
-0.016,-0.186,0.982,,,,,
-0.01,-0.188,0.977,696,32.9,43.1,43792,2
0,-0.174,0.979,,,,,
-0.014,-0.17,0.963,,,,,
-0.033,-0.176,0.975,,,,,
-0.01,-0.189,0.98,,,,,
-0.01,-0.178,0.98,,,,,
0.004,-0.172,0.961,,,,,
-0.031,-0.174,0.963,,,,,
-0.014,-0.18,0.973,,,,,
-0.01,-0.189,0.979,,,,,
0,-0.172,0.959,,,,,
-0.027,-0.174,0.965,,,,,
-0.016,-0.18,0.982,,,,,
-0.008,-0.186,0.982,,,,,
0.004,-0.17,0.967,,,,,
-0.021,-0.172,0.947,,,,,
-0.027,-0.182,0.973,,,,,
-0.01,-0.189,0.986,,,,,
-0.01,-0.174,0.975,696,32.9,43.1,43968,2
0,-0.17,0.961,,,,,
-0.035,-0.176,0.955,,,,,
-0.01,-0.188,0.988,,,,,
-0.01,-0.184,0.977,,,,,
-0.002,-0.17,0.969,,,,,
-0.012,-0.172,0.951,,,,,
-0.027,-0.182,0.975,,,,,
-0.008,-0.189,0.99,,,,,
0.002,-0.172,0.98,,,,,
-0.008,-0.182,0.957,,,,,
-0.037,-0.172,0.957,,,,,
-0.016,-0.189,0.98,,,,,
-0.01,-0.182,0.973,,,,,
0,-0.174,0.969,,,,,
-0.018,-0.178,0.963,,,,,
-0.025,-0.176,0.971,,,,,
-0.01,-0.188,0.98,,,,,
-0.008,-0.176,0.969,696,32.9,43.1,44144,2
-0.006,-0.172,0.963,,,,,
-0.027,-0.174,0.957,,,,,
-0.014,-0.182,0.98,,,,,
-0.012,-0.184,0.982,,,,,
0,-0.178,0.975,,,,,
-0.018,-0.172,0.955,,,,,
-0.023,-0.18,0.971,,,,,
-0.008,-0.191,0.982,,,,,
-0.008,-0.178,0.977,,,,,
-0.004,-0.176,0.961,,,,,
-0.031,-0.174,0.955,,,,,
-0.014,-0.186,0.992,,,,,
-0.01,-0.186,0.979,,,,,
-0.004,-0.174,0.975,,,,,
-0.018,-0.174,0.949,,,,,
-0.023,-0.172,0.971,,,,,
-0.008,-0.195,0.986,,,,,
-0.008,-0.17,0.973,696,32.9,43.1,44319,2
-0.027,-0.182,0.938,,,,,
-0.037,-0.176,0.957,,,,,
-0.02,-0.197,0.98,,,,,
-0.008,-0.182,0.984,,,,,
0,-0.172,0.963,,,,,
-0.02,-0.172,0.963,,,,,
-0.02,-0.182,0.98,,,,,
-0.012,-0.189,0.984,,,,,
-0.004,-0.178,0.982,,,,,
-0.012,-0.174,0.951,,,,,
-0.031,-0.178,0.963,,,,,
-0.014,-0.184,0.986,,,,,
-0.012,-0.178,0.971,,,,,
-0.006,-0.174,0.967,,,,,
-0.02,-0.174,0.957,,,,,
-0.021,-0.18,0.977,,,,,
-0.008,-0.189,0.98,,,,,
-0.006,-0.164,0.965,696,32.9,43.1,44495,2
-0.006,-0.168,0.959,,,,,
-0.031,-0.17,0.965,,,,,
-0.014,-0.189,0.979,,,,,
-0.014,-0.182,0.977,,,,,
-0.004,-0.174,0.971,,,,,
-0.023,-0.174,0.955,,,,,
-0.018,-0.176,0.975,,,,,
-0.008,-0.189,0.979,,,,,
-0.008,-0.176,0.98,,,,,
-0.008,-0.172,0.955,,,,,
-0.031,-0.178,0.965,,,,,
-0.014,-0.189,0.986,,,,,
-0.012,-0.18,0.975,,,,,
0,-0.174,0.965,,,,,
-0.025,-0.168,0.953,,,,,
-0.021,-0.182,0.98,,,,,
-0.01,-0.191,0.986,,,,,
-0.004,-0.172,0.973,696,32.9,43.1,44671,2
-0.004,-0.174,0.959,,,,,
-0.031,-0.176,0.961,,,,,
-0.01,-0.186,0.99,,,,,
-0.012,-0.176,0.979,,,,,
0,-0.172,0.963,,,,,
-0.021,-0.178,0.953,,,,,
-0.018,-0.178,0.969,,,,,
-0.012,-0.189,0.986,,,,,
-0.004,-0.17,0.975,,,,,
-0.012,-0.17,0.953,,,,,
-0.027,-0.17,0.967,,,,,
-0.01,-0.184,0.984,,,,,
-0.012,-0.18,0.977,,,,,
-0.006,-0.178,0.971,,,,,
-0.025,-0.176,0.957,,,,,
-0.021,-0.182,0.984,,,,,
-0.01,-0.184,0.979,,,,,
-0.004,-0.168,0.969,696,32.9,43.1,44847,2
-0.008,-0.176,0.963,,,,,
-0.031,-0.176,0.971,,,,,
-0.012,-0.189,0.982,,,,,
-0.01,-0.176,0.98,,,,,
0,-0.172,0.967,,,,,
-0.025,-0.17,0.953,,,,,
-0.023,-0.174,0.969,,,,,
-0.01,-0.189,0.984,,,,,
-0.004,-0.178,0.977,,,,,
-0.008,-0.168,0.953,,,,,
-0.027,-0.17,0.965,,,,,
-0.012,-0.189,0.982,,,,,
-0.01,-0.184,0.984,,,,,
0,-0.176,0.965,,,,,
-0.025,-0.174,0.957,,,,,
-0.018,-0.18,0.984,,,,,
-0.012,-0.189,0.98,,,,,
-0.006,-0.174,0.977,696,32.9,43.1,45022,2
-0.01,-0.174,0.953,,,,,
-0.035,-0.182,0.965,,,,,
-0.006,-0.189,0.98,,,,,
-0.008,-0.174,0.975,,,,,
-0.002,-0.172,0.955,,,,,
-0.027,-0.172,0.965,,,,,
-0.02,-0.186,0.98,,,,,
-0.008,-0.191,0.984,,,,,
-0.01,-0.172,0.965,,,,,
-0.014,-0.174,0.955,,,,,
-0.025,-0.174,0.965,,,,,
-0.004,-0.188,0.982,,,,,
-0.008,-0.174,0.975,,,,,
-0.002,-0.172,0.961,,,,,
-0.027,-0.174,0.959,,,,,
-0.016,-0.18,0.977,,,,,
-0.014,-0.189,0.977,,,,,
0,-0.168,0.965,696,32.9,43.1,45198,2
-0.014,-0.172,0.951,,,,,
-0.029,-0.178,0.965,,,,,
-0.008,-0.191,0.98,,,,,
-0.01,-0.18,0.977,,,,,
0,-0.174,0.965,,,,,
-0.027,-0.172,0.967,,,,,
-0.02,-0.178,0.979,,,,,
-0.006,-0.182,0.977,,,,,
-0.004,-0.176,0.973,,,,,
-0.012,-0.174,0.953,,,,,
-0.029,-0.17,0.957,,,,,
-0.014,-0.178,0.98,,,,,
-0.008,-0.195,0.986,,,,,
0,-0.172,0.967,,,,,
-0.018,-0.172,0.949,,,,,
-0.027,-0.18,0.969,,,,,
-0.012,-0.191,0.982,,,,,
-0.008,-0.172,0.977,731,33.1,43.2,45411,2
0,-0.17,0.957,,,,,
-0.031,-0.172,0.965,,,,,
-0.01,-0.182,0.982,,,,,
-0.008,-0.189,0.982,,,,,
-0.004,-0.172,0.963,,,,,
-0.02,-0.174,0.953,,,,,
-0.027,-0.174,0.973,,,,,
-0.006,-0.189,0.986,,,,,
-0.01,-0.176,0.969,,,,,
-0.006,-0.174,0.957,,,,,
-0.027,-0.178,0.963,,,,,
-0.012,-0.189,0.982,,,,,
-0.008,-0.182,0.982,,,,,
-0.002,-0.172,0.961,,,,,
-0.016,-0.172,0.963,,,,,
-0.027,-0.184,0.973,,,,,
-0.012,-0.191,0.979,,,,,
-0.01,-0.176,0.975,731,33.1,43.2,45587,2
0,-0.168,0.963,,,,,
-0.033,-0.176,0.973,,,,,
-0.01,-0.176,0.975,,,,,
-0.014,-0.18,0.979,,,,,
-0.002,-0.174,0.975,,,,,
-0.018,-0.174,0.959,,,,,
-0.023,-0.178,0.967,,,,,
-0.012,-0.191,0.977,,,,,
-0.008,-0.174,0.973,,,,,
-0.006,-0.176,0.963,,,,,
-0.035,-0.166,0.959,,,,,
-0.014,-0.189,0.98,,,,,
-0.008,-0.182,0.986,,,,,
0,-0.176,0.969,,,,,
-0.021,-0.168,0.957,,,,,
-0.023,-0.178,0.969,,,,,
-0.01,-0.182,0.98,,,,,
-0.014,-0.174,0.977,731,33.1,43.2,45763,2
-0.006,-0.164,0.957,,,,,
-0.033,-0.172,0.965,,,,,
-0.012,-0.182,0.98,,,,,
-0.01,-0.182,0.979,,,,,
0,-0.17,0.969,,,,,
-0.02,-0.17,0.953,,,,,
-0.02,-0.18,0.975,,,,,
-0.01,-0.188,0.98,,,,,
0,-0.172,0.965,,,,,
-0.004,-0.168,0.947,,,,,
-0.031,-0.168,0.963,,,,,
-0.012,-0.18,0.988,,,,,
-0.01,-0.178,0.979,,,,,
0.002,-0.168,0.953,,,,,
-0.02,-0.174,0.949,,,,,
-0.025,-0.178,0.977,,,,,
-0.016,-0.188,0.98,,,,,
-0.01,-0.17,0.973,731,33.1,43.2,45939,2
-0.006,-0.17,0.955,,,,,
-0.043,-0.182,0.984,,,,,
-0.014,-0.184,0.98,,,,,
-0.008,-0.18,0.992,,,,,
0.004,-0.176,0.971,,,,,
-0.021,-0.168,0.955,,,,,
-0.018,-0.176,0.969,,,,,
-0.01,-0.18,0.979,,,,,
-0.006,-0.174,0.973,,,,,
-0.006,-0.172,0.963,,,,,
-0.035,-0.176,0.959,,,,,
-0.012,-0.188,0.982,,,,,
-0.004,-0.182,0.986,,,,,
0,-0.172,0.965,,,,,
-0.025,-0.176,0.953,,,,,
-0.029,-0.184,0.982,,,,,
-0.014,-0.193,0.982,,,,,
-0.008,-0.178,0.977,731,33.1,43.2,46115,2
-0.008,-0.166,0.949,,,,,
-0.035,-0.172,0.975,,,,,
-0.012,-0.189,0.986,,,,,
-0.008,-0.178,0.98,,,,,
-0.006,-0.176,0.969,,,,,
-0.027,-0.172,0.947,,,,,
-0.025,-0.186,0.973,,,,,
-0.008,-0.184,0.984,,,,,
-0.004,-0.178,0.969,,,,,
-0.008,-0.166,0.957,,,,,
-0.029,-0.168,0.969,,,,,
-0.008,-0.182,0.982,,,,,
-0.01,-0.176,0.971,,,,,
0,-0.172,0.959,,,,,
-0.029,-0.172,0.949,,,,,
-0.025,-0.182,0.975,,,,,
-0.01,-0.188,0.977,,,,,
-0.006,-0.172,0.975,731,33.1,43.2,46290,2
-0.006,-0.172,0.959,,,,,
-0.031,-0.176,0.971,,,,,
-0.012,-0.188,0.98,,,,,
-0.012,-0.178,0.971,,,,,
-0.002,-0.172,0.963,,,,,
-0.023,-0.168,0.957,,,,,
-0.02,-0.188,0.977,,,,,
-0.01,-0.182,0.979,,,,,
-0.002,-0.178,0.975,,,,,
-0.016,-0.176,0.963,,,,,
-0.029,-0.178,0.969,,,,,
-0.012,-0.186,0.982,,,,,
-0.008,-0.176,0.975,,,,,
0,-0.168,0.959,,,,,
-0.025,-0.164,0.951,,,,,
-0.016,-0.182,0.98,,,,,
-0.006,-0.184,0.988,,,,,
-0.006,-0.178,0.975,731,33.1,43.2,46466,2
-0.012,-0.168,0.953,,,,,
-0.031,-0.172,0.965,,,,,
-0.008,-0.188,0.982,,,,,
-0.006,-0.178,0.979,,,,,
-0.004,-0.17,0.955,,,,,
-0.029,-0.17,0.963,,,,,
-0.02,-0.184,0.979,,,,,
-0.006,-0.184,0.977,,,,,
-0.004,-0.174,0.971,,,,,
-0.014,-0.17,0.951,,,,,
-0.025,-0.178,0.975,,,,,
-0.008,-0.189,0.98,,,,,
-0.006,-0.168,0.977,,,,,
-0.004,-0.168,0.953,,,,,
-0.027,-0.17,0.959,,,,,
-0.018,-0.188,0.98,,,,,
-0.01,-0.188,0.977,,,,,
-0.004,-0.176,0.969,731,33.1,43.2,46642,2
-0.014,-0.17,0.955,,,,,
-0.025,-0.178,0.979,,,,,
-0.008,-0.182,0.979,,,,,
-0.006,-0.174,0.973,,,,,
-0.033,-0.18,0.957,,,,,
-0.07,-0.184,0.936,,,,,
-0.041,-0.191,0.965,,,,,
-0.018,-0.182,0.971,,,,,
0.002,-0.182,0.994,,,,,
-0.016,-0.18,0.984,,,,,
-0.014,-0.184,1.006,,,,,
-0.006,-0.195,0.99,,,,,
0,-0.174,0.969,,,,,
0.004,-0.17,0.959,,,,,
-0.016,-0.162,0.961,,,,,
-0.021,-0.189,0.982,,,,,
-0.006,-0.178,0.98,,,,,
-0.002,-0.178,0.969,731,33.1,43.2,46818,2
-0.021,-0.168,0.951,,,,,
-0.025,-0.184,0.975,,,,,
-0.008,-0.189,0.984,,,,,
-0.006,-0.178,0.975,,,,,
-0.012,-0.168,0.953,,,,,
-0.035,-0.174,0.965,,,,,
-0.012,-0.186,0.984,,,,,
-0.008,-0.184,0.977,,,,,
-0.072,-0.189,0.93,,,,,
-0.061,-0.186,0.928,,,,,
-0.043,-0.182,0.961,,,,,
-0.018,-0.189,0.959,,,,,
-0.002,-0.162,0.969,,,,,
0,-0.168,0.965,,,,,
-0.025,-0.172,0.973,,,,,
-0.01,-0.193,0.982,,,,,
-0.006,-0.172,0.967,,,,,
-0.004,-0.176,0.961,731,33.1,43.2,46993,2
-0.027,-0.17,0.957,,,,,
-0.014,-0.18,0.977,,,,,
-0.006,-0.188,0.982,,,,,
-0.01,-0.178,0.977,,,,,
-0.012,-0.172,0.953,,,,,
-0.027,-0.182,0.967,,,,,
-0.014,-0.182,0.984,,,,,
-0.01,-0.178,0.975,,,,,
-0.002,-0.172,0.967,,,,,
-0.033,-0.176,0.961,,,,,
-0.02,-0.182,0.982,,,,,
-0.01,-0.195,0.975,,,,,
0,-0.168,0.971,,,,,
-0.008,-0.176,0.959,,,,,
-0.031,-0.174,0.971,,,,,
-0.01,-0.191,0.98,,,,,
-0.006,-0.178,0.986,,,,,
-0.002,-0.178,0.965,731,33.1,43.2,47169,2
-0.029,-0.166,0.955,,,,,
-0.02,-0.176,0.967,,,,,
-0.006,-0.182,0.977,,,,,
0.002,-0.172,0.977,,,,,
-0.012,-0.168,0.949,,,,,
-0.029,-0.172,0.969,,,,,
-0.008,-0.186,0.99,,,,,
-0.006,-0.178,0.979,,,,,
0.002,-0.168,0.957,,,,,
-0.027,-0.174,0.959,,,,,
-0.018,-0.188,0.98,,,,,
-0.006,-0.172,0.98,,,,,
-0.012,-0.172,0.977,,,,,
0,-0.17,0.961,,,,,
-0.033,-0.168,0.967,,,,,
-0.016,-0.186,0.975,,,,,
-0.008,-0.182,0.982,,,,,
-0.004,-0.172,0.965,778,33.3,41.8,47383,2
-0.018,-0.172,0.957,,,,,
-0.027,-0.184,0.969,,,,,
-0.008,-0.182,0.977,,,,,
